"STUDYID","USUBJID","SUBJID","PARAMCD","PARAM","PCSPEC","AVAL","AVALU","PCLLOQ","TRTP","APERIOD","TRTSEQP","DOSEA","DOSEU","ANL01FL","DTYPE","EXSTDTC","PCDTC"
"NCAA-001","NCAA-001-001",1,"DRUGX","Drug X concentration","PLASMA",0,"ng/mL",0.5,"Test",1,"TR",100,"mg","Y","","2026-03-02T08:00:00","2026-03-02T07:53:24"
"NCAA-001","NCAA-001-001",1,"DRUGX","Drug X concentration","PLASMA",3.5904,"ng/mL",0.5,"Test",1,"TR",100,"mg","Y","","2026-03-02T08:00:00","2026-03-02T08:30:36"
"NCAA-001","NCAA-001-001",1,"DRUGX","Drug X concentration","PLASMA",5.3142,"ng/mL",0.5,"Test",1,"TR",100,"mg","Y","","2026-03-02T08:00:00","2026-03-02T09:02:24"
"NCAA-001","NCAA-001-001",1,"DRUGX","Drug X concentration","PLASMA",5.9336,"ng/mL",0.5,"Test",1,"TR",100,"mg","Y","","2026-03-02T08:00:00","2026-03-02T09:31:12"
"NCAA-001","NCAA-001-001",1,"DRUGX","Drug X concentration","PLASMA",6.074,"ng/mL",0.5,"Test",1,"TR",100,"mg","Y","","2026-03-02T08:00:00","2026-03-02T10:03:36"
"NCAA-001","NCAA-001-001",1,"DRUGX","Drug X concentration","PLASMA",5.6933,"ng/mL",0.5,"Test",1,"TR",100,"mg","Y","","2026-03-02T08:00:00","2026-03-02T11:01:12"
"NCAA-001","NCAA-001-001",1,"DRUGX","Drug X concentration","PLASMA",5.0398,"ng/mL",0.5,"Test",1,"TR",100,"mg","Y","","2026-03-02T08:00:00","2026-03-02T12:01:12"
"NCAA-001","NCAA-001-001",1,"DRUGX","Drug X concentration","PLASMA",3.7656,"ng/mL",0.5,"Test",1,"TR",100,"mg","Y","","2026-03-02T08:00:00","2026-03-02T14:03:00"
"NCAA-001","NCAA-001-001",1,"DRUGX","Drug X concentration","PLASMA",2.7856,"ng/mL",0.5,"Test",1,"TR",100,"mg","Y","","2026-03-02T08:00:00","2026-03-02T16:04:12"
"NCAA-001","NCAA-001-001",1,"DRUGX","Drug X concentration","PLASMA",1.5452,"ng/mL",0.5,"Test",1,"TR",100,"mg","Y","","2026-03-02T08:00:00","2026-03-02T20:00:00"
"NCAA-001","NCAA-001-001",1,"DRUGX","Drug X concentration","PLASMA",0.83917,"ng/mL",0.5,"Test",1,"TR",100,"mg","Y","","2026-03-02T08:00:00","2026-03-03T00:04:12"
"NCAA-001","NCAA-001-001",1,"DRUGX","Drug X concentration","PLASMA",0.25542,"ng/mL",0.5,"Test",1,"TR",100,"mg","Y","","2026-03-02T08:00:00","2026-03-03T08:00:00"
"NCAA-001","NCAA-001-001",1,"DRUGX","Drug X concentration","PLASMA",0,"ng/mL",0.5,"Reference",2,"TR",100,"mg","Y","","2026-03-09T08:00:00","2026-03-09T07:50:24"
"NCAA-001","NCAA-001-001",1,"DRUGX","Drug X concentration","PLASMA",3.6391,"ng/mL",0.5,"Reference",2,"TR",100,"mg","Y","","2026-03-09T08:00:00","2026-03-09T08:30:36"
"NCAA-001","NCAA-001-001",1,"DRUGX","Drug X concentration","PLASMA",5.3012,"ng/mL",0.5,"Reference",2,"TR",100,"mg","Y","","2026-03-09T08:00:00","2026-03-09T09:00:00"
"NCAA-001","NCAA-001-001",1,"DRUGX","Drug X concentration","PLASMA",6.0342,"ng/mL",0.5,"Reference",2,"TR",100,"mg","Y","","2026-03-09T08:00:00","2026-03-09T09:33:00"
"NCAA-001","NCAA-001-001",1,"DRUGX","Drug X concentration","PLASMA",6.1584,"ng/mL",0.5,"Reference",2,"TR",100,"mg","Y","","2026-03-09T08:00:00","2026-03-09T10:01:48"
"NCAA-001","NCAA-001-001",1,"DRUGX","Drug X concentration","PLASMA",5.7341,"ng/mL",0.5,"Reference",2,"TR",100,"mg","Y","","2026-03-09T08:00:00","2026-03-09T11:04:48"
"NCAA-001","NCAA-001-001",1,"DRUGX","Drug X concentration","PLASMA",5.0944,"ng/mL",0.5,"Reference",2,"TR",100,"mg","Y","","2026-03-09T08:00:00","2026-03-09T12:02:24"
"NCAA-001","NCAA-001-001",1,"DRUGX","Drug X concentration","PLASMA",3.845,"ng/mL",0.5,"Reference",2,"TR",100,"mg","Y","","2026-03-09T08:00:00","2026-03-09T14:00:00"
"NCAA-001","NCAA-001-001",1,"DRUGX","Drug X concentration","PLASMA",2.836,"ng/mL",0.5,"Reference",2,"TR",100,"mg","Y","","2026-03-09T08:00:00","2026-03-09T16:02:24"
"NCAA-001","NCAA-001-001",1,"DRUGX","Drug X concentration","PLASMA",1.5544,"ng/mL",0.5,"Reference",2,"TR",100,"mg","Y","","2026-03-09T08:00:00","2026-03-09T20:03:00"
"NCAA-001","NCAA-001-001",1,"DRUGX","Drug X concentration","PLASMA",0.85566,"ng/mL",0.5,"Reference",2,"TR",100,"mg","Y","","2026-03-09T08:00:00","2026-03-10T00:01:48"
"NCAA-001","NCAA-001-001",1,"DRUGX","Drug X concentration","PLASMA",0.2558,"ng/mL",0.5,"Reference",2,"TR",100,"mg","Y","","2026-03-09T08:00:00","2026-03-10T08:04:48"
"NCAA-001","NCAA-001-002",2,"DRUGX","Drug X concentration","PLASMA",0,"ng/mL",0.5,"Reference",1,"RT",100,"mg","Y","","2026-03-02T08:00:00","2026-03-02T07:53:24"
"NCAA-001","NCAA-001-002",2,"DRUGX","Drug X concentration","PLASMA",4.1044,"ng/mL",0.5,"Reference",1,"RT",100,"mg","Y","","2026-03-02T08:00:00","2026-03-02T08:31:48"
"NCAA-001","NCAA-001-002",2,"DRUGX","Drug X concentration","PLASMA",5.9194,"ng/mL",0.5,"Reference",1,"RT",100,"mg","Y","","2026-03-02T08:00:00","2026-03-02T09:02:24"
"NCAA-001","NCAA-001-002",2,"DRUGX","Drug X concentration","PLASMA",6.6518,"ng/mL",0.5,"Reference",1,"RT",100,"mg","Y","","2026-03-02T08:00:00","2026-03-02T09:34:48"
"NCAA-001","NCAA-001-002",2,"DRUGX","Drug X concentration","PLASMA",6.7692,"ng/mL",0.5,"Reference",1,"RT",100,"mg","Y","","2026-03-02T08:00:00","2026-03-02T10:00:00"
"NCAA-001","NCAA-001-002",2,"DRUGX","Drug X concentration","PLASMA",6.3351,"ng/mL",0.5,"Reference",1,"RT",100,"mg","Y","","2026-03-02T08:00:00","2026-03-02T11:01:48"
"NCAA-001","NCAA-001-002",2,"DRUGX","Drug X concentration","PLASMA",5.6213,"ng/mL",0.5,"Reference",1,"RT",100,"mg","Y","","2026-03-02T08:00:00","2026-03-02T12:00:36"
"NCAA-001","NCAA-001-002",2,"DRUGX","Drug X concentration","PLASMA",4.2069,"ng/mL",0.5,"Reference",1,"RT",100,"mg","Y","","2026-03-02T08:00:00","2026-03-02T14:01:48"
"NCAA-001","NCAA-001-002",2,"DRUGX","Drug X concentration","PLASMA",3.1121,"ng/mL",0.5,"Reference",1,"RT",100,"mg","Y","","2026-03-02T08:00:00","2026-03-02T16:03:00"
"NCAA-001","NCAA-001-002",2,"DRUGX","Drug X concentration","PLASMA",1.7083,"ng/mL",0.5,"Reference",1,"RT",100,"mg","Y","","2026-03-02T08:00:00","2026-03-02T20:03:00"
"NCAA-001","NCAA-001-002",2,"DRUGX","Drug X concentration","PLASMA",0.93755,"ng/mL",0.5,"Reference",1,"RT",100,"mg","Y","","2026-03-02T08:00:00","2026-03-03T00:03:00"
"NCAA-001","NCAA-001-002",2,"DRUGX","Drug X concentration","PLASMA",0.28154,"ng/mL",0.5,"Reference",1,"RT",100,"mg","Y","","2026-03-02T08:00:00","2026-03-03T08:04:12"
"NCAA-001","NCAA-001-002",2,"DRUGX","Drug X concentration","PLASMA",0,"ng/mL",0.5,"Test",2,"RT",100,"mg","Y","","2026-03-09T08:00:00","2026-03-09T07:46:48"
"NCAA-001","NCAA-001-002",2,"DRUGX","Drug X concentration","PLASMA",3.9582,"ng/mL",0.5,"Test",2,"RT",100,"mg","Y","","2026-03-09T08:00:00","2026-03-09T08:33:00"
"NCAA-001","NCAA-001-002",2,"DRUGX","Drug X concentration","PLASMA",5.632,"ng/mL",0.5,"Test",2,"RT",100,"mg","Y","","2026-03-09T08:00:00","2026-03-09T09:04:12"
"NCAA-001","NCAA-001-002",2,"DRUGX","Drug X concentration","PLASMA",6.2045,"ng/mL",0.5,"Test",2,"RT",100,"mg","Y","","2026-03-09T08:00:00","2026-03-09T09:30:00"
"NCAA-001","NCAA-001-002",2,"DRUGX","Drug X concentration","PLASMA",6.3697,"ng/mL",0.5,"Test",2,"RT",100,"mg","Y","","2026-03-09T08:00:00","2026-03-09T10:00:36"
"NCAA-001","NCAA-001-002",2,"DRUGX","Drug X concentration","PLASMA",5.9426,"ng/mL",0.5,"Test",2,"RT",100,"mg","Y","","2026-03-09T08:00:00","2026-03-09T11:03:36"
"NCAA-001","NCAA-001-002",2,"DRUGX","Drug X concentration","PLASMA",5.2614,"ng/mL",0.5,"Test",2,"RT",100,"mg","Y","","2026-03-09T08:00:00","2026-03-09T12:03:00"
"NCAA-001","NCAA-001-002",2,"DRUGX","Drug X concentration","PLASMA",3.9764,"ng/mL",0.5,"Test",2,"RT",100,"mg","Y","","2026-03-09T08:00:00","2026-03-09T14:00:00"
"NCAA-001","NCAA-001-002",2,"DRUGX","Drug X concentration","PLASMA",2.9373,"ng/mL",0.5,"Test",2,"RT",100,"mg","Y","","2026-03-09T08:00:00","2026-03-09T16:01:48"
"NCAA-001","NCAA-001-002",2,"DRUGX","Drug X concentration","PLASMA",1.61,"ng/mL",0.5,"Test",2,"RT",100,"mg","Y","","2026-03-09T08:00:00","2026-03-09T20:02:24"
"NCAA-001","NCAA-001-002",2,"DRUGX","Drug X concentration","PLASMA",0.88756,"ng/mL",0.5,"Test",2,"RT",100,"mg","Y","","2026-03-09T08:00:00","2026-03-10T00:00:36"
"NCAA-001","NCAA-001-002",2,"DRUGX","Drug X concentration","PLASMA",0.26653,"ng/mL",0.5,"Test",2,"RT",100,"mg","Y","","2026-03-09T08:00:00","2026-03-10T08:01:48"
"NCAA-001","NCAA-001-003",3,"DRUGX","Drug X concentration","PLASMA",0,"ng/mL",0.5,"Test",1,"TR",100,"mg","Y","","2026-03-02T08:00:00","2026-03-02T07:51:36"
"NCAA-001","NCAA-001-003",3,"DRUGX","Drug X concentration","PLASMA",4.9296,"ng/mL",0.5,"Test",1,"TR",100,"mg","Y","","2026-03-02T08:00:00","2026-03-02T08:33:36"
"NCAA-001","NCAA-001-003",3,"DRUGX","Drug X concentration","PLASMA",6.9072,"ng/mL",0.5,"Test",1,"TR",100,"mg","Y","","2026-03-02T08:00:00","2026-03-02T09:03:36"
"NCAA-001","NCAA-001-003",3,"DRUGX","Drug X concentration","PLASMA",7.7044,"ng/mL",0.5,"Test",1,"TR",100,"mg","Y","","2026-03-02T08:00:00","2026-03-02T09:34:48"
"NCAA-001","NCAA-001-003",3,"DRUGX","Drug X concentration","PLASMA",7.8389,"ng/mL",0.5,"Test",1,"TR",100,"mg","Y","","2026-03-02T08:00:00","2026-03-02T10:01:48"
"NCAA-001","NCAA-001-003",3,"DRUGX","Drug X concentration","PLASMA",7.3528,"ng/mL",0.5,"Test",1,"TR",100,"mg","Y","","2026-03-02T08:00:00","2026-03-02T11:00:36"
"NCAA-001","NCAA-001-003",3,"DRUGX","Drug X concentration","PLASMA",6.4933,"ng/mL",0.5,"Test",1,"TR",100,"mg","Y","","2026-03-02T08:00:00","2026-03-02T12:01:48"
"NCAA-001","NCAA-001-003",3,"DRUGX","Drug X concentration","PLASMA",4.8799,"ng/mL",0.5,"Test",1,"TR",100,"mg","Y","","2026-03-02T08:00:00","2026-03-02T14:01:12"
"NCAA-001","NCAA-001-003",3,"DRUGX","Drug X concentration","PLASMA",3.5992,"ng/mL",0.5,"Test",1,"TR",100,"mg","Y","","2026-03-02T08:00:00","2026-03-02T16:03:36"
"NCAA-001","NCAA-001-003",3,"DRUGX","Drug X concentration","PLASMA",1.9757,"ng/mL",0.5,"Test",1,"TR",100,"mg","Y","","2026-03-02T08:00:00","2026-03-02T20:03:36"
"NCAA-001","NCAA-001-003",3,"DRUGX","Drug X concentration","PLASMA",1.0843,"ng/mL",0.5,"Test",1,"TR",100,"mg","Y","","2026-03-02T08:00:00","2026-03-03T00:03:36"
"NCAA-001","NCAA-001-003",3,"DRUGX","Drug X concentration","PLASMA",0.32805,"ng/mL",0.5,"Test",1,"TR",100,"mg","Y","","2026-03-02T08:00:00","2026-03-03T08:01:48"
"NCAA-001","NCAA-001-003",3,"DRUGX","Drug X concentration","PLASMA",0,"ng/mL",0.5,"Reference",2,"TR",100,"mg","Y","","2026-03-09T08:00:00","2026-03-09T07:47:24"
"NCAA-001","NCAA-001-003",3,"DRUGX","Drug X concentration","PLASMA",4.5815,"ng/mL",0.5,"Reference",2,"TR",100,"mg","Y","","2026-03-09T08:00:00","2026-03-09T08:32:24"
"NCAA-001","NCAA-001-003",3,"DRUGX","Drug X concentration","PLASMA",6.4493,"ng/mL",0.5,"Reference",2,"TR",100,"mg","Y","","2026-03-09T08:00:00","2026-03-09T09:00:36"
"NCAA-001","NCAA-001-003",3,"DRUGX","Drug X concentration","PLASMA",7.2949,"ng/mL",0.5,"Reference",2,"TR",100,"mg","Y","","2026-03-09T08:00:00","2026-03-09T09:31:48"
"NCAA-001","NCAA-001-003",3,"DRUGX","Drug X concentration","PLASMA",7.4599,"ng/mL",0.5,"Reference",2,"TR",100,"mg","Y","","2026-03-09T08:00:00","2026-03-09T10:03:00"
"NCAA-001","NCAA-001-003",3,"DRUGX","Drug X concentration","PLASMA",6.9987,"ng/mL",0.5,"Reference",2,"TR",100,"mg","Y","","2026-03-09T08:00:00","2026-03-09T11:00:36"
"NCAA-001","NCAA-001-003",3,"DRUGX","Drug X concentration","PLASMA",6.1391,"ng/mL",0.5,"Reference",2,"TR",100,"mg","Y","","2026-03-09T08:00:00","2026-03-09T12:04:48"
"NCAA-001","NCAA-001-003",3,"DRUGX","Drug X concentration","PLASMA",4.6242,"ng/mL",0.5,"Reference",2,"TR",100,"mg","Y","","2026-03-09T08:00:00","2026-03-09T14:03:00"
"NCAA-001","NCAA-001-003",3,"DRUGX","Drug X concentration","PLASMA",3.4516,"ng/mL",0.5,"Reference",2,"TR",100,"mg","Y","","2026-03-09T08:00:00","2026-03-09T16:00:36"
"NCAA-001","NCAA-001-003",3,"DRUGX","Drug X concentration","PLASMA",1.8918,"ng/mL",0.5,"Reference",2,"TR",100,"mg","Y","","2026-03-09T08:00:00","2026-03-09T20:01:12"
"NCAA-001","NCAA-001-003",3,"DRUGX","Drug X concentration","PLASMA",1.0367,"ng/mL",0.5,"Reference",2,"TR",100,"mg","Y","","2026-03-09T08:00:00","2026-03-10T00:01:48"
"NCAA-001","NCAA-001-003",3,"DRUGX","Drug X concentration","PLASMA",0.31038,"ng/mL",0.5,"Reference",2,"TR",100,"mg","Y","","2026-03-09T08:00:00","2026-03-10T08:04:12"
"NCAA-001","NCAA-001-004",4,"DRUGX","Drug X concentration","PLASMA",0,"ng/mL",0.5,"Reference",1,"RT",100,"mg","Y","","2026-03-02T08:00:00","2026-03-02T07:57:00"
"NCAA-001","NCAA-001-004",4,"DRUGX","Drug X concentration","PLASMA",3.1454,"ng/mL",0.5,"Reference",1,"RT",100,"mg","Y","","2026-03-02T08:00:00","2026-03-02T08:34:12"
"NCAA-001","NCAA-001-004",4,"DRUGX","Drug X concentration","PLASMA",4.3082,"ng/mL",0.5,"Reference",1,"RT",100,"mg","Y","","2026-03-02T08:00:00","2026-03-02T09:01:48"
"NCAA-001","NCAA-001-004",4,"DRUGX","Drug X concentration","PLASMA",4.8399,"ng/mL",0.5,"Reference",1,"RT",100,"mg","Y","","2026-03-02T08:00:00","2026-03-02T09:32:24"
"NCAA-001","NCAA-001-004",4,"DRUGX","Drug X concentration","PLASMA",4.9448,"ng/mL",0.5,"Reference",1,"RT",100,"mg","Y","","2026-03-02T08:00:00","2026-03-02T10:01:48"
"NCAA-001","NCAA-001-004",4,"DRUGX","Drug X concentration","PLASMA",4.643,"ng/mL",0.5,"Reference",1,"RT",100,"mg","Y","","2026-03-02T08:00:00","2026-03-02T11:00:00"
"NCAA-001","NCAA-001-004",4,"DRUGX","Drug X concentration","PLASMA",4.1015,"ng/mL",0.5,"Reference",1,"RT",100,"mg","Y","","2026-03-02T08:00:00","2026-03-02T12:01:12"
"NCAA-001","NCAA-001-004",4,"DRUGX","Drug X concentration","PLASMA",3.0828,"ng/mL",0.5,"Reference",1,"RT",100,"mg","Y","","2026-03-02T08:00:00","2026-03-02T14:00:36"
"NCAA-001","NCAA-001-004",4,"DRUGX","Drug X concentration","PLASMA",2.2704,"ng/mL",0.5,"Reference",1,"RT",100,"mg","Y","","2026-03-02T08:00:00","2026-03-02T16:03:36"
"NCAA-001","NCAA-001-004",4,"DRUGX","Drug X concentration","PLASMA",1.2556,"ng/mL",0.5,"Reference",1,"RT",100,"mg","Y","","2026-03-02T08:00:00","2026-03-02T20:00:36"
"NCAA-001","NCAA-001-004",4,"DRUGX","Drug X concentration","PLASMA",0.68808,"ng/mL",0.5,"Reference",1,"RT",100,"mg","Y","","2026-03-02T08:00:00","2026-03-03T00:01:12"
"NCAA-001","NCAA-001-004",4,"DRUGX","Drug X concentration","PLASMA",0.2057,"ng/mL",0.5,"Reference",1,"RT",100,"mg","Y","","2026-03-02T08:00:00","2026-03-03T08:04:12"
"NCAA-001","NCAA-001-004",4,"DRUGX","Drug X concentration","PLASMA",0,"ng/mL",0.5,"Test",2,"RT",100,"mg","Y","","2026-03-09T08:00:00","2026-03-09T07:47:24"
"NCAA-001","NCAA-001-004",4,"DRUGX","Drug X concentration","PLASMA",2.4215,"ng/mL",0.5,"Test",2,"RT",100,"mg","Y","","2026-03-09T08:00:00","2026-03-09T08:30:00"
"NCAA-001","NCAA-001-004",4,"DRUGX","Drug X concentration","PLASMA",3.5901,"ng/mL",0.5,"Test",2,"RT",100,"mg","Y","","2026-03-09T08:00:00","2026-03-09T09:00:36"
"NCAA-001","NCAA-001-004",4,"DRUGX","Drug X concentration","PLASMA",4.0609,"ng/mL",0.5,"Test",2,"RT",100,"mg","Y","","2026-03-09T08:00:00","2026-03-09T09:31:48"
"NCAA-001","NCAA-001-004",4,"DRUGX","Drug X concentration","PLASMA",4.1541,"ng/mL",0.5,"Test",2,"RT",100,"mg","Y","","2026-03-09T08:00:00","2026-03-09T10:00:36"
"NCAA-001","NCAA-001-004",4,"DRUGX","Drug X concentration","PLASMA",3.8879,"ng/mL",0.5,"Test",2,"RT",100,"mg","Y","","2026-03-09T08:00:00","2026-03-09T11:01:48"
"NCAA-001","NCAA-001-004",4,"DRUGX","Drug X concentration","PLASMA",3.4452,"ng/mL",0.5,"Test",2,"RT",100,"mg","Y","","2026-03-09T08:00:00","2026-03-09T12:01:12"
"NCAA-001","NCAA-001-004",4,"DRUGX","Drug X concentration","PLASMA",2.5933,"ng/mL",0.5,"Test",2,"RT",100,"mg","Y","","2026-03-09T08:00:00","2026-03-09T14:00:00"
"NCAA-001","NCAA-001-004",4,"DRUGX","Drug X concentration","PLASMA",1.9185,"ng/mL",0.5,"Test",2,"RT",100,"mg","Y","","2026-03-09T08:00:00","2026-03-09T16:01:12"
"NCAA-001","NCAA-001-004",4,"DRUGX","Drug X concentration","PLASMA",1.0563,"ng/mL",0.5,"Test",2,"RT",100,"mg","Y","","2026-03-09T08:00:00","2026-03-09T20:00:00"
"NCAA-001","NCAA-001-004",4,"DRUGX","Drug X concentration","PLASMA",0.57971,"ng/mL",0.5,"Test",2,"RT",100,"mg","Y","","2026-03-09T08:00:00","2026-03-10T00:00:00"
"NCAA-001","NCAA-001-004",4,"DRUGX","Drug X concentration","PLASMA",0.17461,"ng/mL",0.5,"Test",2,"RT",100,"mg","Y","","2026-03-09T08:00:00","2026-03-10T08:00:00"
"NCAA-001","NCAA-001-005",5,"DRUGX","Drug X concentration","PLASMA",0,"ng/mL",0.5,"Test",1,"TR",100,"mg","Y","","2026-03-02T08:00:00","2026-03-02T07:49:48"
"NCAA-001","NCAA-001-005",5,"DRUGX","Drug X concentration","PLASMA",5.146,"ng/mL",0.5,"Test",1,"TR",100,"mg","Y","","2026-03-02T08:00:00","2026-03-02T08:33:36"
"NCAA-001","NCAA-001-005",5,"DRUGX","Drug X concentration","PLASMA",7.1016,"ng/mL",0.5,"Test",1,"TR",100,"mg","Y","","2026-03-02T08:00:00","2026-03-02T09:01:12"
"NCAA-001","NCAA-001-005",5,"DRUGX","Drug X concentration","PLASMA",8.0181,"ng/mL",0.5,"Test",1,"TR",100,"mg","Y","","2026-03-02T08:00:00","2026-03-02T09:33:00"
"NCAA-001","NCAA-001-005",5,"DRUGX","Drug X concentration","PLASMA",8.1831,"ng/mL",0.5,"Test",1,"TR",100,"mg","Y","","2026-03-02T08:00:00","2026-03-02T10:01:48"
"NCAA-001","NCAA-001-005",5,"DRUGX","Drug X concentration","PLASMA",7.6676,"ng/mL",0.5,"Test",1,"TR",100,"mg","Y","","2026-03-02T08:00:00","2026-03-02T11:01:12"
"NCAA-001","NCAA-001-005",5,"DRUGX","Drug X concentration","PLASMA",6.8057,"ng/mL",0.5,"Test",1,"TR",100,"mg","Y","","2026-03-02T08:00:00","2026-03-02T12:00:00"
"NCAA-001","NCAA-001-005",5,"DRUGX","Drug X concentration","PLASMA",5.064,"ng/mL",0.5,"Test",1,"TR",100,"mg","Y","","2026-03-02T08:00:00","2026-03-02T14:03:36"
"NCAA-001","NCAA-001-005",5,"DRUGX","Drug X concentration","PLASMA",3.7628,"ng/mL",0.5,"Test",1,"TR",100,"mg","Y","","2026-03-02T08:00:00","2026-03-02T16:03:00"
"NCAA-001","NCAA-001-005",5,"DRUGX","Drug X concentration","PLASMA",2.0717,"ng/mL",0.5,"Test",1,"TR",100,"mg","Y","","2026-03-02T08:00:00","2026-03-02T20:01:48"
"NCAA-001","NCAA-001-005",5,"DRUGX","Drug X concentration","PLASMA",1.1421,"ng/mL",0.5,"Test",1,"TR",100,"mg","Y","","2026-03-02T08:00:00","2026-03-03T00:00:00"
"NCAA-001","NCAA-001-005",5,"DRUGX","Drug X concentration","PLASMA",0.34348,"ng/mL",0.5,"Test",1,"TR",100,"mg","Y","","2026-03-02T08:00:00","2026-03-03T08:00:36"
"NCAA-001","NCAA-001-005",5,"DRUGX","Drug X concentration","PLASMA",0,"ng/mL",0.5,"Reference",2,"TR",100,"mg","Y","","2026-03-09T08:00:00","2026-03-09T07:50:24"
"NCAA-001","NCAA-001-005",5,"DRUGX","Drug X concentration","PLASMA",4.9629,"ng/mL",0.5,"Reference",2,"TR",100,"mg","Y","","2026-03-09T08:00:00","2026-03-09T08:30:36"
"NCAA-001","NCAA-001-005",5,"DRUGX","Drug X concentration","PLASMA",7.3173,"ng/mL",0.5,"Reference",2,"TR",100,"mg","Y","","2026-03-09T08:00:00","2026-03-09T09:01:48"
"NCAA-001","NCAA-001-005",5,"DRUGX","Drug X concentration","PLASMA",8.2111,"ng/mL",0.5,"Reference",2,"TR",100,"mg","Y","","2026-03-09T08:00:00","2026-03-09T09:31:48"
"NCAA-001","NCAA-001-005",5,"DRUGX","Drug X concentration","PLASMA",8.3997,"ng/mL",0.5,"Reference",2,"TR",100,"mg","Y","","2026-03-09T08:00:00","2026-03-09T10:00:36"
"NCAA-001","NCAA-001-005",5,"DRUGX","Drug X concentration","PLASMA",7.8859,"ng/mL",0.5,"Reference",2,"TR",100,"mg","Y","","2026-03-09T08:00:00","2026-03-09T11:00:00"
"NCAA-001","NCAA-001-005",5,"DRUGX","Drug X concentration","PLASMA",6.985,"ng/mL",0.5,"Reference",2,"TR",100,"mg","Y","","2026-03-09T08:00:00","2026-03-09T12:00:00"
"NCAA-001","NCAA-001-005",5,"DRUGX","Drug X concentration","PLASMA",5.205,"ng/mL",0.5,"Reference",2,"TR",100,"mg","Y","","2026-03-09T08:00:00","2026-03-09T14:03:00"
"NCAA-001","NCAA-001-005",5,"DRUGX","Drug X concentration","PLASMA",3.8735,"ng/mL",0.5,"Reference",2,"TR",100,"mg","Y","","2026-03-09T08:00:00","2026-03-09T16:01:48"
"NCAA-001","NCAA-001-005",5,"DRUGX","Drug X concentration","PLASMA",2.1135,"ng/mL",0.5,"Reference",2,"TR",100,"mg","Y","","2026-03-09T08:00:00","2026-03-09T20:04:12"
"NCAA-001","NCAA-001-005",5,"DRUGX","Drug X concentration","PLASMA",1.1617,"ng/mL",0.5,"Reference",2,"TR",100,"mg","Y","","2026-03-09T08:00:00","2026-03-10T00:03:36"
"NCAA-001","NCAA-001-005",5,"DRUGX","Drug X concentration","PLASMA",0.352,"ng/mL",0.5,"Reference",2,"TR",100,"mg","Y","","2026-03-09T08:00:00","2026-03-10T08:01:12"
"NCAA-001","NCAA-001-006",6,"DRUGX","Drug X concentration","PLASMA",0,"ng/mL",0.5,"Reference",1,"RT",100,"mg","Y","","2026-03-02T08:00:00","2026-03-02T07:45:36"
"NCAA-001","NCAA-001-006",6,"DRUGX","Drug X concentration","PLASMA",4.0193,"ng/mL",0.5,"Reference",1,"RT",100,"mg","Y","","2026-03-02T08:00:00","2026-03-02T08:31:48"
"NCAA-001","NCAA-001-006",6,"DRUGX","Drug X concentration","PLASMA",5.861,"ng/mL",0.5,"Reference",1,"RT",100,"mg","Y","","2026-03-02T08:00:00","2026-03-02T09:04:12"
"NCAA-001","NCAA-001-006",6,"DRUGX","Drug X concentration","PLASMA",6.5139,"ng/mL",0.5,"Reference",1,"RT",100,"mg","Y","","2026-03-02T08:00:00","2026-03-02T09:34:48"
"NCAA-001","NCAA-001-006",6,"DRUGX","Drug X concentration","PLASMA",6.6286,"ng/mL",0.5,"Reference",1,"RT",100,"mg","Y","","2026-03-02T08:00:00","2026-03-02T10:00:36"
"NCAA-001","NCAA-001-006",6,"DRUGX","Drug X concentration","PLASMA",6.1842,"ng/mL",0.5,"Reference",1,"RT",100,"mg","Y","","2026-03-02T08:00:00","2026-03-02T11:03:36"
"NCAA-001","NCAA-001-006",6,"DRUGX","Drug X concentration","PLASMA",5.4605,"ng/mL",0.5,"Reference",1,"RT",100,"mg","Y","","2026-03-02T08:00:00","2026-03-02T12:04:12"
"NCAA-001","NCAA-001-006",6,"DRUGX","Drug X concentration","PLASMA",4.0954,"ng/mL",0.5,"Reference",1,"RT",100,"mg","Y","","2026-03-02T08:00:00","2026-03-02T14:04:12"
"NCAA-001","NCAA-001-006",6,"DRUGX","Drug X concentration","PLASMA",3.0476,"ng/mL",0.5,"Reference",1,"RT",100,"mg","Y","","2026-03-02T08:00:00","2026-03-02T16:03:00"
"NCAA-001","NCAA-001-006",6,"DRUGX","Drug X concentration","PLASMA",1.6754,"ng/mL",0.5,"Reference",1,"RT",100,"mg","Y","","2026-03-02T08:00:00","2026-03-02T20:02:24"
"NCAA-001","NCAA-001-006",6,"DRUGX","Drug X concentration","PLASMA",0.91811,"ng/mL",0.5,"Reference",1,"RT",100,"mg","Y","","2026-03-02T08:00:00","2026-03-03T00:03:00"
"NCAA-001","NCAA-001-006",6,"DRUGX","Drug X concentration","PLASMA",0.27612,"ng/mL",0.5,"Reference",1,"RT",100,"mg","Y","","2026-03-02T08:00:00","2026-03-03T08:03:36"
"NCAA-001","NCAA-001-006",6,"DRUGX","Drug X concentration","PLASMA",0,"ng/mL",0.5,"Test",2,"RT",100,"mg","Y","","2026-03-09T08:00:00","2026-03-09T07:46:48"
"NCAA-001","NCAA-001-006",6,"DRUGX","Drug X concentration","PLASMA",3.5096,"ng/mL",0.5,"Test",2,"RT",100,"mg","Y","","2026-03-09T08:00:00","2026-03-09T08:31:48"
"NCAA-001","NCAA-001-006",6,"DRUGX","Drug X concentration","PLASMA",5.0994,"ng/mL",0.5,"Test",2,"RT",100,"mg","Y","","2026-03-09T08:00:00","2026-03-09T09:03:36"
"NCAA-001","NCAA-001-006",6,"DRUGX","Drug X concentration","PLASMA",5.6449,"ng/mL",0.5,"Test",2,"RT",100,"mg","Y","","2026-03-09T08:00:00","2026-03-09T09:30:36"
"NCAA-001","NCAA-001-006",6,"DRUGX","Drug X concentration","PLASMA",5.7861,"ng/mL",0.5,"Test",2,"RT",100,"mg","Y","","2026-03-09T08:00:00","2026-03-09T10:03:00"
"NCAA-001","NCAA-001-006",6,"DRUGX","Drug X concentration","PLASMA",5.4001,"ng/mL",0.5,"Test",2,"RT",100,"mg","Y","","2026-03-09T08:00:00","2026-03-09T11:03:36"
"NCAA-001","NCAA-001-006",6,"DRUGX","Drug X concentration","PLASMA",4.8003,"ng/mL",0.5,"Test",2,"RT",100,"mg","Y","","2026-03-09T08:00:00","2026-03-09T12:01:12"
"NCAA-001","NCAA-001-006",6,"DRUGX","Drug X concentration","PLASMA",3.5973,"ng/mL",0.5,"Test",2,"RT",100,"mg","Y","","2026-03-09T08:00:00","2026-03-09T14:01:48"
"NCAA-001","NCAA-001-006",6,"DRUGX","Drug X concentration","PLASMA",2.6652,"ng/mL",0.5,"Test",2,"RT",100,"mg","Y","","2026-03-09T08:00:00","2026-03-09T16:02:24"
"NCAA-001","NCAA-001-006",6,"DRUGX","Drug X concentration","PLASMA",1.4564,"ng/mL",0.5,"Test",2,"RT",100,"mg","Y","","2026-03-09T08:00:00","2026-03-09T20:04:12"
"NCAA-001","NCAA-001-006",6,"DRUGX","Drug X concentration","PLASMA",0.8005,"ng/mL",0.5,"Test",2,"RT",100,"mg","Y","","2026-03-09T08:00:00","2026-03-10T00:03:36"
"NCAA-001","NCAA-001-006",6,"DRUGX","Drug X concentration","PLASMA",0.24183,"ng/mL",0.5,"Test",2,"RT",100,"mg","Y","","2026-03-09T08:00:00","2026-03-10T08:02:24"
"NCAA-001","NCAA-001-007",7,"DRUGX","Drug X concentration","PLASMA",0,"ng/mL",0.5,"Test",1,"TR",100,"mg","Y","","2026-03-02T08:00:00","2026-03-02T07:54:36"
"NCAA-001","NCAA-001-007",7,"DRUGX","Drug X concentration","PLASMA",4.518,"ng/mL",0.5,"Test",1,"TR",100,"mg","Y","","2026-03-02T08:00:00","2026-03-02T08:33:00"
"NCAA-001","NCAA-001-007",7,"DRUGX","Drug X concentration","PLASMA",6.382,"ng/mL",0.5,"Test",1,"TR",100,"mg","Y","","2026-03-02T08:00:00","2026-03-02T09:03:00"
"NCAA-001","NCAA-001-007",7,"DRUGX","Drug X concentration","PLASMA",7.0991,"ng/mL",0.5,"Test",1,"TR",100,"mg","Y","","2026-03-02T08:00:00","2026-03-02T09:31:12"
"NCAA-001","NCAA-001-007",7,"DRUGX","Drug X concentration","PLASMA",7.2701,"ng/mL",0.5,"Test",1,"TR",100,"mg","Y","","2026-03-02T08:00:00","2026-03-02T10:01:12"
"NCAA-001","NCAA-001-007",7,"DRUGX","Drug X concentration","PLASMA",6.8045,"ng/mL",0.5,"Test",1,"TR",100,"mg","Y","","2026-03-02T08:00:00","2026-03-02T11:01:48"
"NCAA-001","NCAA-001-007",7,"DRUGX","Drug X concentration","PLASMA",5.9893,"ng/mL",0.5,"Test",1,"TR",100,"mg","Y","","2026-03-02T08:00:00","2026-03-02T12:04:12"
"NCAA-001","NCAA-001-007",7,"DRUGX","Drug X concentration","PLASMA",4.5254,"ng/mL",0.5,"Test",1,"TR",100,"mg","Y","","2026-03-02T08:00:00","2026-03-02T14:01:12"
"NCAA-001","NCAA-001-007",7,"DRUGX","Drug X concentration","PLASMA",3.3477,"ng/mL",0.5,"Test",1,"TR",100,"mg","Y","","2026-03-02T08:00:00","2026-03-02T16:02:24"
"NCAA-001","NCAA-001-007",7,"DRUGX","Drug X concentration","PLASMA",1.8432,"ng/mL",0.5,"Test",1,"TR",100,"mg","Y","","2026-03-02T08:00:00","2026-03-02T20:01:12"
"NCAA-001","NCAA-001-007",7,"DRUGX","Drug X concentration","PLASMA",1.0085,"ng/mL",0.5,"Test",1,"TR",100,"mg","Y","","2026-03-02T08:00:00","2026-03-03T00:02:24"
"NCAA-001","NCAA-001-007",7,"DRUGX","Drug X concentration","PLASMA",0.3024,"ng/mL",0.5,"Test",1,"TR",100,"mg","Y","","2026-03-02T08:00:00","2026-03-03T08:04:12"
"NCAA-001","NCAA-001-007",7,"DRUGX","Drug X concentration","PLASMA",0,"ng/mL",0.5,"Reference",2,"TR",100,"mg","Y","","2026-03-09T08:00:00","2026-03-09T07:49:48"
"NCAA-001","NCAA-001-007",7,"DRUGX","Drug X concentration","PLASMA",5.1069,"ng/mL",0.5,"Reference",2,"TR",100,"mg","Y","","2026-03-09T08:00:00","2026-03-09T08:33:36"
"NCAA-001","NCAA-001-007",7,"DRUGX","Drug X concentration","PLASMA",7.2068,"ng/mL",0.5,"Reference",2,"TR",100,"mg","Y","","2026-03-09T08:00:00","2026-03-09T09:04:48"
"NCAA-001","NCAA-001-007",7,"DRUGX","Drug X concentration","PLASMA",7.9815,"ng/mL",0.5,"Reference",2,"TR",100,"mg","Y","","2026-03-09T08:00:00","2026-03-09T09:34:48"
"NCAA-001","NCAA-001-007",7,"DRUGX","Drug X concentration","PLASMA",8.1182,"ng/mL",0.5,"Reference",2,"TR",100,"mg","Y","","2026-03-09T08:00:00","2026-03-09T10:03:36"
"NCAA-001","NCAA-001-007",7,"DRUGX","Drug X concentration","PLASMA",7.5775,"ng/mL",0.5,"Reference",2,"TR",100,"mg","Y","","2026-03-09T08:00:00","2026-03-09T11:03:36"
"NCAA-001","NCAA-001-007",7,"DRUGX","Drug X concentration","PLASMA",6.6998,"ng/mL",0.5,"Reference",2,"TR",100,"mg","Y","","2026-03-09T08:00:00","2026-03-09T12:03:36"
"NCAA-001","NCAA-001-007",7,"DRUGX","Drug X concentration","PLASMA",5.0255,"ng/mL",0.5,"Reference",2,"TR",100,"mg","Y","","2026-03-09T08:00:00","2026-03-09T14:03:36"
"NCAA-001","NCAA-001-007",7,"DRUGX","Drug X concentration","PLASMA",3.7623,"ng/mL",0.5,"Reference",2,"TR",100,"mg","Y","","2026-03-09T08:00:00","2026-03-09T16:00:00"
"NCAA-001","NCAA-001-007",7,"DRUGX","Drug X concentration","PLASMA",2.0591,"ng/mL",0.5,"Reference",2,"TR",100,"mg","Y","","2026-03-09T08:00:00","2026-03-09T20:01:12"
"NCAA-001","NCAA-001-007",7,"DRUGX","Drug X concentration","PLASMA",1.1199,"ng/mL",0.5,"Reference",2,"TR",100,"mg","Y","","2026-03-09T08:00:00","2026-03-10T00:04:48"
"NCAA-001","NCAA-001-007",7,"DRUGX","Drug X concentration","PLASMA",0.33782,"ng/mL",0.5,"Reference",2,"TR",100,"mg","Y","","2026-03-09T08:00:00","2026-03-10T08:04:12"
"NCAA-001","NCAA-001-008",8,"DRUGX","Drug X concentration","PLASMA",0,"ng/mL",0.5,"Reference",1,"RT",100,"mg","Y","","2026-03-02T08:00:00","2026-03-02T07:51:00"
"NCAA-001","NCAA-001-008",8,"DRUGX","Drug X concentration","PLASMA",5.258,"ng/mL",0.5,"Reference",1,"RT",100,"mg","Y","","2026-03-02T08:00:00","2026-03-02T08:30:36"
"NCAA-001","NCAA-001-008",8,"DRUGX","Drug X concentration","PLASMA",7.8116,"ng/mL",0.5,"Reference",1,"RT",100,"mg","Y","","2026-03-02T08:00:00","2026-03-02T09:03:00"
"NCAA-001","NCAA-001-008",8,"DRUGX","Drug X concentration","PLASMA",8.6894,"ng/mL",0.5,"Reference",1,"RT",100,"mg","Y","","2026-03-02T08:00:00","2026-03-02T09:31:12"
"NCAA-001","NCAA-001-008",8,"DRUGX","Drug X concentration","PLASMA",8.898,"ng/mL",0.5,"Reference",1,"RT",100,"mg","Y","","2026-03-02T08:00:00","2026-03-02T10:01:48"
"NCAA-001","NCAA-001-008",8,"DRUGX","Drug X concentration","PLASMA",8.3288,"ng/mL",0.5,"Reference",1,"RT",100,"mg","Y","","2026-03-02T08:00:00","2026-03-02T11:01:48"
"NCAA-001","NCAA-001-008",8,"DRUGX","Drug X concentration","PLASMA",7.3408,"ng/mL",0.5,"Reference",1,"RT",100,"mg","Y","","2026-03-02T08:00:00","2026-03-02T12:03:36"
"NCAA-001","NCAA-001-008",8,"DRUGX","Drug X concentration","PLASMA",5.5227,"ng/mL",0.5,"Reference",1,"RT",100,"mg","Y","","2026-03-02T08:00:00","2026-03-02T14:02:24"
"NCAA-001","NCAA-001-008",8,"DRUGX","Drug X concentration","PLASMA",4.0793,"ng/mL",0.5,"Reference",1,"RT",100,"mg","Y","","2026-03-02T08:00:00","2026-03-02T16:04:12"
"NCAA-001","NCAA-001-008",8,"DRUGX","Drug X concentration","PLASMA",2.2359,"ng/mL",0.5,"Reference",1,"RT",100,"mg","Y","","2026-03-02T08:00:00","2026-03-02T20:04:48"
"NCAA-001","NCAA-001-008",8,"DRUGX","Drug X concentration","PLASMA",1.2326,"ng/mL",0.5,"Reference",1,"RT",100,"mg","Y","","2026-03-02T08:00:00","2026-03-03T00:03:00"
"NCAA-001","NCAA-001-008",8,"DRUGX","Drug X concentration","PLASMA",0.37349,"ng/mL",0.5,"Reference",1,"RT",100,"mg","Y","","2026-03-02T08:00:00","2026-03-03T08:00:36"
"NCAA-001","NCAA-001-008",8,"DRUGX","Drug X concentration","PLASMA",0,"ng/mL",0.5,"Test",2,"RT",100,"mg","Y","","2026-03-09T08:00:00","2026-03-09T07:55:12"
"NCAA-001","NCAA-001-008",8,"DRUGX","Drug X concentration","PLASMA",3.7346,"ng/mL",0.5,"Test",2,"RT",100,"mg","Y","","2026-03-09T08:00:00","2026-03-09T08:33:36"
"NCAA-001","NCAA-001-008",8,"DRUGX","Drug X concentration","PLASMA",5.2517,"ng/mL",0.5,"Test",2,"RT",100,"mg","Y","","2026-03-09T08:00:00","2026-03-09T09:04:12"
"NCAA-001","NCAA-001-008",8,"DRUGX","Drug X concentration","PLASMA",5.8062,"ng/mL",0.5,"Test",2,"RT",100,"mg","Y","","2026-03-09T08:00:00","2026-03-09T09:31:48"
"NCAA-001","NCAA-001-008",8,"DRUGX","Drug X concentration","PLASMA",5.9368,"ng/mL",0.5,"Test",2,"RT",100,"mg","Y","","2026-03-09T08:00:00","2026-03-09T10:03:36"
"NCAA-001","NCAA-001-008",8,"DRUGX","Drug X concentration","PLASMA",5.5647,"ng/mL",0.5,"Test",2,"RT",100,"mg","Y","","2026-03-09T08:00:00","2026-03-09T11:01:12"
"NCAA-001","NCAA-001-008",8,"DRUGX","Drug X concentration","PLASMA",4.9061,"ng/mL",0.5,"Test",2,"RT",100,"mg","Y","","2026-03-09T08:00:00","2026-03-09T12:03:00"
"NCAA-001","NCAA-001-008",8,"DRUGX","Drug X concentration","PLASMA",3.6642,"ng/mL",0.5,"Test",2,"RT",100,"mg","Y","","2026-03-09T08:00:00","2026-03-09T14:04:48"
"NCAA-001","NCAA-001-008",8,"DRUGX","Drug X concentration","PLASMA",2.7513,"ng/mL",0.5,"Test",2,"RT",100,"mg","Y","","2026-03-09T08:00:00","2026-03-09T16:00:00"
"NCAA-001","NCAA-001-008",8,"DRUGX","Drug X concentration","PLASMA",1.4923,"ng/mL",0.5,"Test",2,"RT",100,"mg","Y","","2026-03-09T08:00:00","2026-03-09T20:04:48"
"NCAA-001","NCAA-001-008",8,"DRUGX","Drug X concentration","PLASMA",0.82639,"ng/mL",0.5,"Test",2,"RT",100,"mg","Y","","2026-03-09T08:00:00","2026-03-10T00:01:12"
"NCAA-001","NCAA-001-008",8,"DRUGX","Drug X concentration","PLASMA",0.24816,"ng/mL",0.5,"Test",2,"RT",100,"mg","Y","","2026-03-09T08:00:00","2026-03-10T08:02:24"
"NCAA-001","NCAA-001-009",9,"DRUGX","Drug X concentration","PLASMA",0,"ng/mL",0.5,"Test",1,"TR",100,"mg","Y","","2026-03-02T08:00:00","2026-03-02T07:48:00"
"NCAA-001","NCAA-001-009",9,"DRUGX","Drug X concentration","PLASMA",5.3336,"ng/mL",0.5,"Test",1,"TR",100,"mg","Y","","2026-03-02T08:00:00","2026-03-02T08:33:36"
"NCAA-001","NCAA-001-009",9,"DRUGX","Drug X concentration","PLASMA",7.3605,"ng/mL",0.5,"Test",1,"TR",100,"mg","Y","","2026-03-02T08:00:00","2026-03-02T09:01:12"
"NCAA-001","NCAA-001-009",9,"DRUGX","Drug X concentration","PLASMA",8.3276,"ng/mL",0.5,"Test",1,"TR",100,"mg","Y","","2026-03-02T08:00:00","2026-03-02T09:34:12"
"NCAA-001","NCAA-001-009",9,"DRUGX","Drug X concentration","PLASMA",8.4814,"ng/mL",0.5,"Test",1,"TR",100,"mg","Y","","2026-03-02T08:00:00","2026-03-02T10:01:48"
"NCAA-001","NCAA-001-009",9,"DRUGX","Drug X concentration","PLASMA",7.9223,"ng/mL",0.5,"Test",1,"TR",100,"mg","Y","","2026-03-02T08:00:00","2026-03-02T11:03:00"
"NCAA-001","NCAA-001-009",9,"DRUGX","Drug X concentration","PLASMA",7.0161,"ng/mL",0.5,"Test",1,"TR",100,"mg","Y","","2026-03-02T08:00:00","2026-03-02T12:02:24"
"NCAA-001","NCAA-001-009",9,"DRUGX","Drug X concentration","PLASMA",5.2642,"ng/mL",0.5,"Test",1,"TR",100,"mg","Y","","2026-03-02T08:00:00","2026-03-02T14:02:24"
"NCAA-001","NCAA-001-009",9,"DRUGX","Drug X concentration","PLASMA",3.9058,"ng/mL",0.5,"Test",1,"TR",100,"mg","Y","","2026-03-02T08:00:00","2026-03-02T16:02:24"
"NCAA-001","NCAA-001-009",9,"DRUGX","Drug X concentration","PLASMA",2.1344,"ng/mL",0.5,"Test",1,"TR",100,"mg","Y","","2026-03-02T08:00:00","2026-03-02T20:04:12"
"NCAA-001","NCAA-001-009",9,"DRUGX","Drug X concentration","PLASMA",1.1837,"ng/mL",0.5,"Test",1,"TR",100,"mg","Y","","2026-03-02T08:00:00","2026-03-03T00:00:00"
"NCAA-001","NCAA-001-009",9,"DRUGX","Drug X concentration","PLASMA",0.35334,"ng/mL",0.5,"Test",1,"TR",100,"mg","Y","","2026-03-02T08:00:00","2026-03-03T08:03:36"
"NCAA-001","NCAA-001-009",9,"DRUGX","Drug X concentration","PLASMA",0,"ng/mL",0.5,"Reference",2,"TR",100,"mg","Y","","2026-03-09T08:00:00","2026-03-09T07:54:36"
"NCAA-001","NCAA-001-009",9,"DRUGX","Drug X concentration","PLASMA",5.2741,"ng/mL",0.5,"Reference",2,"TR",100,"mg","Y","","2026-03-09T08:00:00","2026-03-09T08:34:48"
"NCAA-001","NCAA-001-009",9,"DRUGX","Drug X concentration","PLASMA",7.1155,"ng/mL",0.5,"Reference",2,"TR",100,"mg","Y","","2026-03-09T08:00:00","2026-03-09T09:01:12"
"NCAA-001","NCAA-001-009",9,"DRUGX","Drug X concentration","PLASMA",8.0338,"ng/mL",0.5,"Reference",2,"TR",100,"mg","Y","","2026-03-09T08:00:00","2026-03-09T09:33:00"
"NCAA-001","NCAA-001-009",9,"DRUGX","Drug X concentration","PLASMA",8.1983,"ng/mL",0.5,"Reference",2,"TR",100,"mg","Y","","2026-03-09T08:00:00","2026-03-09T10:02:24"
"NCAA-001","NCAA-001-009",9,"DRUGX","Drug X concentration","PLASMA",7.6505,"ng/mL",0.5,"Reference",2,"TR",100,"mg","Y","","2026-03-09T08:00:00","2026-03-09T11:03:36"
"NCAA-001","NCAA-001-009",9,"DRUGX","Drug X concentration","PLASMA",6.8099,"ng/mL",0.5,"Reference",2,"TR",100,"mg","Y","","2026-03-09T08:00:00","2026-03-09T12:00:36"
"NCAA-001","NCAA-001-009",9,"DRUGX","Drug X concentration","PLASMA",5.0814,"ng/mL",0.5,"Reference",2,"TR",100,"mg","Y","","2026-03-09T08:00:00","2026-03-09T14:03:00"
"NCAA-001","NCAA-001-009",9,"DRUGX","Drug X concentration","PLASMA",3.7533,"ng/mL",0.5,"Reference",2,"TR",100,"mg","Y","","2026-03-09T08:00:00","2026-03-09T16:04:48"
"NCAA-001","NCAA-001-009",9,"DRUGX","Drug X concentration","PLASMA",2.0789,"ng/mL",0.5,"Reference",2,"TR",100,"mg","Y","","2026-03-09T08:00:00","2026-03-09T20:01:12"
"NCAA-001","NCAA-001-009",9,"DRUGX","Drug X concentration","PLASMA",1.1358,"ng/mL",0.5,"Reference",2,"TR",100,"mg","Y","","2026-03-09T08:00:00","2026-03-10T00:03:00"
"NCAA-001","NCAA-001-009",9,"DRUGX","Drug X concentration","PLASMA",0.3421,"ng/mL",0.5,"Reference",2,"TR",100,"mg","Y","","2026-03-09T08:00:00","2026-03-10T08:03:00"
"NCAA-001","NCAA-001-010",10,"DRUGX","Drug X concentration","PLASMA",0,"ng/mL",0.5,"Reference",1,"RT",100,"mg","Y","","2026-03-02T08:00:00","2026-03-02T07:49:48"
"NCAA-001","NCAA-001-010",10,"DRUGX","Drug X concentration","PLASMA",4.0723,"ng/mL",0.5,"Reference",1,"RT",100,"mg","Y","","2026-03-02T08:00:00","2026-03-02T08:31:48"
"NCAA-001","NCAA-001-010",10,"DRUGX","Drug X concentration","PLASMA",5.8952,"ng/mL",0.5,"Reference",1,"RT",100,"mg","Y","","2026-03-02T08:00:00","2026-03-02T09:03:00"
"NCAA-001","NCAA-001-010",10,"DRUGX","Drug X concentration","PLASMA",6.5933,"ng/mL",0.5,"Reference",1,"RT",100,"mg","Y","","2026-03-02T08:00:00","2026-03-02T09:34:12"
"NCAA-001","NCAA-001-010",10,"DRUGX","Drug X concentration","PLASMA",6.716,"ng/mL",0.5,"Reference",1,"RT",100,"mg","Y","","2026-03-02T08:00:00","2026-03-02T10:00:36"
"NCAA-001","NCAA-001-010",10,"DRUGX","Drug X concentration","PLASMA",6.2724,"ng/mL",0.5,"Reference",1,"RT",100,"mg","Y","","2026-03-02T08:00:00","2026-03-02T11:03:00"
"NCAA-001","NCAA-001-010",10,"DRUGX","Drug X concentration","PLASMA",5.54,"ng/mL",0.5,"Reference",1,"RT",100,"mg","Y","","2026-03-02T08:00:00","2026-03-02T12:03:36"
"NCAA-001","NCAA-001-010",10,"DRUGX","Drug X concentration","PLASMA",4.1679,"ng/mL",0.5,"Reference",1,"RT",100,"mg","Y","","2026-03-02T08:00:00","2026-03-02T14:02:24"
"NCAA-001","NCAA-001-010",10,"DRUGX","Drug X concentration","PLASMA",3.0832,"ng/mL",0.5,"Reference",1,"RT",100,"mg","Y","","2026-03-02T08:00:00","2026-03-02T16:03:36"
"NCAA-001","NCAA-001-010",10,"DRUGX","Drug X concentration","PLASMA",1.6975,"ng/mL",0.5,"Reference",1,"RT",100,"mg","Y","","2026-03-02T08:00:00","2026-03-02T20:02:24"
"NCAA-001","NCAA-001-010",10,"DRUGX","Drug X concentration","PLASMA",0.92883,"ng/mL",0.5,"Reference",1,"RT",100,"mg","Y","","2026-03-02T08:00:00","2026-03-03T00:03:36"
"NCAA-001","NCAA-001-010",10,"DRUGX","Drug X concentration","PLASMA",0.2806,"ng/mL",0.5,"Reference",1,"RT",100,"mg","Y","","2026-03-02T08:00:00","2026-03-03T08:02:24"
"NCAA-001","NCAA-001-010",10,"DRUGX","Drug X concentration","PLASMA",0,"ng/mL",0.5,"Test",2,"RT",100,"mg","Y","","2026-03-09T08:00:00","2026-03-09T07:46:48"
"NCAA-001","NCAA-001-010",10,"DRUGX","Drug X concentration","PLASMA",4.9152,"ng/mL",0.5,"Test",2,"RT",100,"mg","Y","","2026-03-09T08:00:00","2026-03-09T08:32:24"
"NCAA-001","NCAA-001-010",10,"DRUGX","Drug X concentration","PLASMA",7.0535,"ng/mL",0.5,"Test",2,"RT",100,"mg","Y","","2026-03-09T08:00:00","2026-03-09T09:03:36"
"NCAA-001","NCAA-001-010",10,"DRUGX","Drug X concentration","PLASMA",7.8598,"ng/mL",0.5,"Test",2,"RT",100,"mg","Y","","2026-03-09T08:00:00","2026-03-09T09:34:12"
"NCAA-001","NCAA-001-010",10,"DRUGX","Drug X concentration","PLASMA",8.0033,"ng/mL",0.5,"Test",2,"RT",100,"mg","Y","","2026-03-09T08:00:00","2026-03-09T10:03:00"
"NCAA-001","NCAA-001-010",10,"DRUGX","Drug X concentration","PLASMA",7.5085,"ng/mL",0.5,"Test",2,"RT",100,"mg","Y","","2026-03-09T08:00:00","2026-03-09T11:00:36"
"NCAA-001","NCAA-001-010",10,"DRUGX","Drug X concentration","PLASMA",6.613,"ng/mL",0.5,"Test",2,"RT",100,"mg","Y","","2026-03-09T08:00:00","2026-03-09T12:03:00"
"NCAA-001","NCAA-001-010",10,"DRUGX","Drug X concentration","PLASMA",4.9832,"ng/mL",0.5,"Test",2,"RT",100,"mg","Y","","2026-03-09T08:00:00","2026-03-09T14:01:12"
"NCAA-001","NCAA-001-010",10,"DRUGX","Drug X concentration","PLASMA",3.6699,"ng/mL",0.5,"Test",2,"RT",100,"mg","Y","","2026-03-09T08:00:00","2026-03-09T16:04:12"
"NCAA-001","NCAA-001-010",10,"DRUGX","Drug X concentration","PLASMA",2.0205,"ng/mL",0.5,"Test",2,"RT",100,"mg","Y","","2026-03-09T08:00:00","2026-03-09T20:03:00"
"NCAA-001","NCAA-001-010",10,"DRUGX","Drug X concentration","PLASMA",1.1156,"ng/mL",0.5,"Test",2,"RT",100,"mg","Y","","2026-03-09T08:00:00","2026-03-10T00:00:36"
"NCAA-001","NCAA-001-010",10,"DRUGX","Drug X concentration","PLASMA",0.334,"ng/mL",0.5,"Test",2,"RT",100,"mg","Y","","2026-03-09T08:00:00","2026-03-10T08:03:00"
"NCAA-001","NCAA-001-011",11,"DRUGX","Drug X concentration","PLASMA",0,"ng/mL",0.5,"Test",1,"TR",100,"mg","Y","","2026-03-02T08:00:00","2026-03-02T07:49:48"
"NCAA-001","NCAA-001-011",11,"DRUGX","Drug X concentration","PLASMA",3.5781,"ng/mL",0.5,"Test",1,"TR",100,"mg","Y","","2026-03-02T08:00:00","2026-03-02T08:32:24"
"NCAA-001","NCAA-001-011",11,"DRUGX","Drug X concentration","PLASMA",5.0771,"ng/mL",0.5,"Test",1,"TR",100,"mg","Y","","2026-03-02T08:00:00","2026-03-02T09:01:48"
"NCAA-001","NCAA-001-011",11,"DRUGX","Drug X concentration","PLASMA",5.6973,"ng/mL",0.5,"Test",1,"TR",100,"mg","Y","","2026-03-02T08:00:00","2026-03-02T09:31:48"
"NCAA-001","NCAA-001-011",11,"DRUGX","Drug X concentration","PLASMA",5.8268,"ng/mL",0.5,"Test",1,"TR",100,"mg","Y","","2026-03-02T08:00:00","2026-03-02T10:02:24"
"NCAA-001","NCAA-001-011",11,"DRUGX","Drug X concentration","PLASMA",5.4489,"ng/mL",0.5,"Test",1,"TR",100,"mg","Y","","2026-03-02T08:00:00","2026-03-02T11:02:24"
"NCAA-001","NCAA-001-011",11,"DRUGX","Drug X concentration","PLASMA",4.8141,"ng/mL",0.5,"Test",1,"TR",100,"mg","Y","","2026-03-02T08:00:00","2026-03-02T12:03:00"
"NCAA-001","NCAA-001-011",11,"DRUGX","Drug X concentration","PLASMA",3.6169,"ng/mL",0.5,"Test",1,"TR",100,"mg","Y","","2026-03-02T08:00:00","2026-03-02T14:02:24"
"NCAA-001","NCAA-001-011",11,"DRUGX","Drug X concentration","PLASMA",2.6957,"ng/mL",0.5,"Test",1,"TR",100,"mg","Y","","2026-03-02T08:00:00","2026-03-02T16:00:36"
"NCAA-001","NCAA-001-011",11,"DRUGX","Drug X concentration","PLASMA",1.4753,"ng/mL",0.5,"Test",1,"TR",100,"mg","Y","","2026-03-02T08:00:00","2026-03-02T20:01:48"
"NCAA-001","NCAA-001-011",11,"DRUGX","Drug X concentration","PLASMA",0.81211,"ng/mL",0.5,"Test",1,"TR",100,"mg","Y","","2026-03-02T08:00:00","2026-03-03T00:00:36"
"NCAA-001","NCAA-001-011",11,"DRUGX","Drug X concentration","PLASMA",0.24387,"ng/mL",0.5,"Test",1,"TR",100,"mg","Y","","2026-03-02T08:00:00","2026-03-03T08:01:48"
"NCAA-001","NCAA-001-011",11,"DRUGX","Drug X concentration","PLASMA",0,"ng/mL",0.5,"Reference",2,"TR",100,"mg","Y","","2026-03-09T08:00:00","2026-03-09T07:56:24"
"NCAA-001","NCAA-001-011",11,"DRUGX","Drug X concentration","PLASMA",5.0662,"ng/mL",0.5,"Reference",2,"TR",100,"mg","Y","","2026-03-09T08:00:00","2026-03-09T08:34:48"
"NCAA-001","NCAA-001-011",11,"DRUGX","Drug X concentration","PLASMA",6.7798,"ng/mL",0.5,"Reference",2,"TR",100,"mg","Y","","2026-03-09T08:00:00","2026-03-09T09:00:00"
"NCAA-001","NCAA-001-011",11,"DRUGX","Drug X concentration","PLASMA",7.7408,"ng/mL",0.5,"Reference",2,"TR",100,"mg","Y","","2026-03-09T08:00:00","2026-03-09T09:34:48"
"NCAA-001","NCAA-001-011",11,"DRUGX","Drug X concentration","PLASMA",7.8744,"ng/mL",0.5,"Reference",2,"TR",100,"mg","Y","","2026-03-09T08:00:00","2026-03-09T10:03:00"
"NCAA-001","NCAA-001-011",11,"DRUGX","Drug X concentration","PLASMA",7.3876,"ng/mL",0.5,"Reference",2,"TR",100,"mg","Y","","2026-03-09T08:00:00","2026-03-09T11:00:36"
"NCAA-001","NCAA-001-011",11,"DRUGX","Drug X concentration","PLASMA",6.4977,"ng/mL",0.5,"Reference",2,"TR",100,"mg","Y","","2026-03-09T08:00:00","2026-03-09T12:03:36"
"NCAA-001","NCAA-001-011",11,"DRUGX","Drug X concentration","PLASMA",4.9102,"ng/mL",0.5,"Reference",2,"TR",100,"mg","Y","","2026-03-09T08:00:00","2026-03-09T14:00:36"
"NCAA-001","NCAA-001-011",11,"DRUGX","Drug X concentration","PLASMA",3.6434,"ng/mL",0.5,"Reference",2,"TR",100,"mg","Y","","2026-03-09T08:00:00","2026-03-09T16:00:36"
"NCAA-001","NCAA-001-011",11,"DRUGX","Drug X concentration","PLASMA",1.994,"ng/mL",0.5,"Reference",2,"TR",100,"mg","Y","","2026-03-09T08:00:00","2026-03-09T20:01:48"
"NCAA-001","NCAA-001-011",11,"DRUGX","Drug X concentration","PLASMA",1.0976,"ng/mL",0.5,"Reference",2,"TR",100,"mg","Y","","2026-03-09T08:00:00","2026-03-10T00:00:36"
"NCAA-001","NCAA-001-011",11,"DRUGX","Drug X concentration","PLASMA",0.33059,"ng/mL",0.5,"Reference",2,"TR",100,"mg","Y","","2026-03-09T08:00:00","2026-03-10T08:00:36"
"NCAA-001","NCAA-001-012",12,"DRUGX","Drug X concentration","PLASMA",0,"ng/mL",0.5,"Reference",1,"RT",100,"mg","Y","","2026-03-02T08:00:00","2026-03-02T07:55:12"
"NCAA-001","NCAA-001-012",12,"DRUGX","Drug X concentration","PLASMA",3.1113,"ng/mL",0.5,"Reference",1,"RT",100,"mg","Y","","2026-03-02T08:00:00","2026-03-02T08:31:12"
"NCAA-001","NCAA-001-012",12,"DRUGX","Drug X concentration","PLASMA",4.5621,"ng/mL",0.5,"Reference",1,"RT",100,"mg","Y","","2026-03-02T08:00:00","2026-03-02T09:03:00"
"NCAA-001","NCAA-001-012",12,"DRUGX","Drug X concentration","PLASMA",5.1023,"ng/mL",0.5,"Reference",1,"RT",100,"mg","Y","","2026-03-02T08:00:00","2026-03-02T09:34:12"
"NCAA-001","NCAA-001-012",12,"DRUGX","Drug X concentration","PLASMA",5.196,"ng/mL",0.5,"Reference",1,"RT",100,"mg","Y","","2026-03-02T08:00:00","2026-03-02T10:02:24"
"NCAA-001","NCAA-001-012",12,"DRUGX","Drug X concentration","PLASMA",4.8539,"ng/mL",0.5,"Reference",1,"RT",100,"mg","Y","","2026-03-02T08:00:00","2026-03-02T11:03:00"
"NCAA-001","NCAA-001-012",12,"DRUGX","Drug X concentration","PLASMA",4.2929,"ng/mL",0.5,"Reference",1,"RT",100,"mg","Y","","2026-03-02T08:00:00","2026-03-02T12:03:00"
"NCAA-001","NCAA-001-012",12,"DRUGX","Drug X concentration","PLASMA",3.2397,"ng/mL",0.5,"Reference",1,"RT",100,"mg","Y","","2026-03-02T08:00:00","2026-03-02T14:00:36"
"NCAA-001","NCAA-001-012",12,"DRUGX","Drug X concentration","PLASMA",2.3967,"ng/mL",0.5,"Reference",1,"RT",100,"mg","Y","","2026-03-02T08:00:00","2026-03-02T16:01:48"
"NCAA-001","NCAA-001-012",12,"DRUGX","Drug X concentration","PLASMA",1.3077,"ng/mL",0.5,"Reference",1,"RT",100,"mg","Y","","2026-03-02T08:00:00","2026-03-02T20:04:12"
"NCAA-001","NCAA-001-012",12,"DRUGX","Drug X concentration","PLASMA",0.72094,"ng/mL",0.5,"Reference",1,"RT",100,"mg","Y","","2026-03-02T08:00:00","2026-03-03T00:02:24"
"NCAA-001","NCAA-001-012",12,"DRUGX","Drug X concentration","PLASMA",0.21617,"ng/mL",0.5,"Reference",1,"RT",100,"mg","Y","","2026-03-02T08:00:00","2026-03-03T08:04:12"
"NCAA-001","NCAA-001-012",12,"DRUGX","Drug X concentration","PLASMA",0,"ng/mL",0.5,"Test",2,"RT",100,"mg","Y","","2026-03-09T08:00:00","2026-03-09T07:51:36"
"NCAA-001","NCAA-001-012",12,"DRUGX","Drug X concentration","PLASMA",5.202,"ng/mL",0.5,"Test",2,"RT",100,"mg","Y","","2026-03-09T08:00:00","2026-03-09T08:34:48"
"NCAA-001","NCAA-001-012",12,"DRUGX","Drug X concentration","PLASMA",7.0459,"ng/mL",0.5,"Test",2,"RT",100,"mg","Y","","2026-03-09T08:00:00","2026-03-09T09:01:48"
"NCAA-001","NCAA-001-012",12,"DRUGX","Drug X concentration","PLASMA",7.924,"ng/mL",0.5,"Test",2,"RT",100,"mg","Y","","2026-03-09T08:00:00","2026-03-09T09:33:00"
"NCAA-001","NCAA-001-012",12,"DRUGX","Drug X concentration","PLASMA",8.0885,"ng/mL",0.5,"Test",2,"RT",100,"mg","Y","","2026-03-09T08:00:00","2026-03-09T10:00:00"
"NCAA-001","NCAA-001-012",12,"DRUGX","Drug X concentration","PLASMA",7.5539,"ng/mL",0.5,"Test",2,"RT",100,"mg","Y","","2026-03-09T08:00:00","2026-03-09T11:03:00"
"NCAA-001","NCAA-001-012",12,"DRUGX","Drug X concentration","PLASMA",6.6898,"ng/mL",0.5,"Test",2,"RT",100,"mg","Y","","2026-03-09T08:00:00","2026-03-09T12:02:24"
"NCAA-001","NCAA-001-012",12,"DRUGX","Drug X concentration","PLASMA",5.012,"ng/mL",0.5,"Test",2,"RT",100,"mg","Y","","2026-03-09T08:00:00","2026-03-09T14:03:00"
"NCAA-001","NCAA-001-012",12,"DRUGX","Drug X concentration","PLASMA",3.741,"ng/mL",0.5,"Test",2,"RT",100,"mg","Y","","2026-03-09T08:00:00","2026-03-09T16:00:36"
"NCAA-001","NCAA-001-012",12,"DRUGX","Drug X concentration","PLASMA",2.0413,"ng/mL",0.5,"Test",2,"RT",100,"mg","Y","","2026-03-09T08:00:00","2026-03-09T20:03:00"
"NCAA-001","NCAA-001-012",12,"DRUGX","Drug X concentration","PLASMA",1.1186,"ng/mL",0.5,"Test",2,"RT",100,"mg","Y","","2026-03-09T08:00:00","2026-03-10T00:03:36"
"NCAA-001","NCAA-001-012",12,"DRUGX","Drug X concentration","PLASMA",0.33691,"ng/mL",0.5,"Test",2,"RT",100,"mg","Y","","2026-03-09T08:00:00","2026-03-10T08:03:36"
