"STUDYID","USUBJID","SUBJID","PARAMCD","PARAM","PCSPEC","AVAL","AVALU","PCLLOQ","NRRLT","ARRLT","AFRLT","RRLTU","TRTP","APERIOD","TRTSEQP","DOSEA","DOSEU","ANL01FL","DTYPE"
"NCAA-001","NCAA-001-001",1,"DRUGX","Drug X concentration","PLASMA",0,"ng/mL",0.5,0,-0.11,-0.11,"h","Test",1,"TR",100,"mg","Y",""
"NCAA-001","NCAA-001-001",1,"DRUGX","Drug X concentration","PLASMA",3.5904,"ng/mL",0.5,0.5,0.51,0.51,"h","Test",1,"TR",100,"mg","Y",""
"NCAA-001","NCAA-001-001",1,"DRUGX","Drug X concentration","PLASMA",5.3142,"ng/mL",0.5,1,1.04,1.04,"h","Test",1,"TR",100,"mg","Y",""
"NCAA-001","NCAA-001-001",1,"DRUGX","Drug X concentration","PLASMA",5.9336,"ng/mL",0.5,1.5,1.52,1.52,"h","Test",1,"TR",100,"mg","Y",""
"NCAA-001","NCAA-001-001",1,"DRUGX","Drug X concentration","PLASMA",6.074,"ng/mL",0.5,2,2.06,2.06,"h","Test",1,"TR",100,"mg","Y",""
"NCAA-001","NCAA-001-001",1,"DRUGX","Drug X concentration","PLASMA",5.6933,"ng/mL",0.5,3,3.02,3.02,"h","Test",1,"TR",100,"mg","Y",""
"NCAA-001","NCAA-001-001",1,"DRUGX","Drug X concentration","PLASMA",5.0398,"ng/mL",0.5,4,4.02,4.02,"h","Test",1,"TR",100,"mg","Y",""
"NCAA-001","NCAA-001-001",1,"DRUGX","Drug X concentration","PLASMA",3.7656,"ng/mL",0.5,6,6.05,6.05,"h","Test",1,"TR",100,"mg","Y",""
"NCAA-001","NCAA-001-001",1,"DRUGX","Drug X concentration","PLASMA",2.7856,"ng/mL",0.5,8,8.07,8.07,"h","Test",1,"TR",100,"mg","Y",""
"NCAA-001","NCAA-001-001",1,"DRUGX","Drug X concentration","PLASMA",1.5452,"ng/mL",0.5,12,12,12,"h","Test",1,"TR",100,"mg","Y",""
"NCAA-001","NCAA-001-001",1,"DRUGX","Drug X concentration","PLASMA",0.83917,"ng/mL",0.5,16,16.07,16.07,"h","Test",1,"TR",100,"mg","Y",""
"NCAA-001","NCAA-001-001",1,"DRUGX","Drug X concentration","PLASMA",0.25542,"ng/mL",0.5,24,24,24,"h","Test",1,"TR",100,"mg","Y",""
"NCAA-001","NCAA-001-001",1,"DRUGX","Drug X concentration","PLASMA",0,"ng/mL",0.5,0,-0.16,167.84,"h","Reference",2,"TR",100,"mg","Y",""
"NCAA-001","NCAA-001-001",1,"DRUGX","Drug X concentration","PLASMA",3.6391,"ng/mL",0.5,0.5,0.51,168.51,"h","Reference",2,"TR",100,"mg","Y",""
"NCAA-001","NCAA-001-001",1,"DRUGX","Drug X concentration","PLASMA",5.3012,"ng/mL",0.5,1,1,169,"h","Reference",2,"TR",100,"mg","Y",""
"NCAA-001","NCAA-001-001",1,"DRUGX","Drug X concentration","PLASMA",6.0342,"ng/mL",0.5,1.5,1.55,169.55,"h","Reference",2,"TR",100,"mg","Y",""
"NCAA-001","NCAA-001-001",1,"DRUGX","Drug X concentration","PLASMA",6.1584,"ng/mL",0.5,2,2.03,170.03,"h","Reference",2,"TR",100,"mg","Y",""
"NCAA-001","NCAA-001-001",1,"DRUGX","Drug X concentration","PLASMA",5.7341,"ng/mL",0.5,3,3.08,171.08,"h","Reference",2,"TR",100,"mg","Y",""
"NCAA-001","NCAA-001-001",1,"DRUGX","Drug X concentration","PLASMA",5.0944,"ng/mL",0.5,4,4.04,172.04,"h","Reference",2,"TR",100,"mg","Y",""
"NCAA-001","NCAA-001-001",1,"DRUGX","Drug X concentration","PLASMA",3.845,"ng/mL",0.5,6,6,174,"h","Reference",2,"TR",100,"mg","Y",""
"NCAA-001","NCAA-001-001",1,"DRUGX","Drug X concentration","PLASMA",2.836,"ng/mL",0.5,8,8.04,176.04,"h","Reference",2,"TR",100,"mg","Y",""
"NCAA-001","NCAA-001-001",1,"DRUGX","Drug X concentration","PLASMA",1.5544,"ng/mL",0.5,12,12.05,180.05,"h","Reference",2,"TR",100,"mg","Y",""
"NCAA-001","NCAA-001-001",1,"DRUGX","Drug X concentration","PLASMA",0.85566,"ng/mL",0.5,16,16.03,184.03,"h","Reference",2,"TR",100,"mg","Y",""
"NCAA-001","NCAA-001-001",1,"DRUGX","Drug X concentration","PLASMA",0.2558,"ng/mL",0.5,24,24.08,192.08,"h","Reference",2,"TR",100,"mg","Y",""
"NCAA-001","NCAA-001-002",2,"DRUGX","Drug X concentration","PLASMA",0,"ng/mL",0.5,0,-0.11,-0.11,"h","Reference",1,"RT",100,"mg","Y",""
"NCAA-001","NCAA-001-002",2,"DRUGX","Drug X concentration","PLASMA",4.1044,"ng/mL",0.5,0.5,0.53,0.53,"h","Reference",1,"RT",100,"mg","Y",""
"NCAA-001","NCAA-001-002",2,"DRUGX","Drug X concentration","PLASMA",5.9194,"ng/mL",0.5,1,1.04,1.04,"h","Reference",1,"RT",100,"mg","Y",""
"NCAA-001","NCAA-001-002",2,"DRUGX","Drug X concentration","PLASMA",6.6518,"ng/mL",0.5,1.5,1.58,1.58,"h","Reference",1,"RT",100,"mg","Y",""
"NCAA-001","NCAA-001-002",2,"DRUGX","Drug X concentration","PLASMA",6.7692,"ng/mL",0.5,2,2,2,"h","Reference",1,"RT",100,"mg","Y",""
"NCAA-001","NCAA-001-002",2,"DRUGX","Drug X concentration","PLASMA",6.3351,"ng/mL",0.5,3,3.03,3.03,"h","Reference",1,"RT",100,"mg","Y",""
"NCAA-001","NCAA-001-002",2,"DRUGX","Drug X concentration","PLASMA",5.6213,"ng/mL",0.5,4,4.01,4.01,"h","Reference",1,"RT",100,"mg","Y",""
"NCAA-001","NCAA-001-002",2,"DRUGX","Drug X concentration","PLASMA",4.2069,"ng/mL",0.5,6,6.03,6.03,"h","Reference",1,"RT",100,"mg","Y",""
"NCAA-001","NCAA-001-002",2,"DRUGX","Drug X concentration","PLASMA",3.1121,"ng/mL",0.5,8,8.05,8.05,"h","Reference",1,"RT",100,"mg","Y",""
"NCAA-001","NCAA-001-002",2,"DRUGX","Drug X concentration","PLASMA",1.7083,"ng/mL",0.5,12,12.05,12.05,"h","Reference",1,"RT",100,"mg","Y",""
"NCAA-001","NCAA-001-002",2,"DRUGX","Drug X concentration","PLASMA",0.93755,"ng/mL",0.5,16,16.05,16.05,"h","Reference",1,"RT",100,"mg","Y",""
"NCAA-001","NCAA-001-002",2,"DRUGX","Drug X concentration","PLASMA",0.28154,"ng/mL",0.5,24,24.07,24.07,"h","Reference",1,"RT",100,"mg","Y",""
"NCAA-001","NCAA-001-002",2,"DRUGX","Drug X concentration","PLASMA",0,"ng/mL",0.5,0,-0.22,167.78,"h","Test",2,"RT",100,"mg","Y",""
"NCAA-001","NCAA-001-002",2,"DRUGX","Drug X concentration","PLASMA",3.9582,"ng/mL",0.5,0.5,0.55,168.55,"h","Test",2,"RT",100,"mg","Y",""
"NCAA-001","NCAA-001-002",2,"DRUGX","Drug X concentration","PLASMA",5.632,"ng/mL",0.5,1,1.07,169.07,"h","Test",2,"RT",100,"mg","Y",""
"NCAA-001","NCAA-001-002",2,"DRUGX","Drug X concentration","PLASMA",6.2045,"ng/mL",0.5,1.5,1.5,169.5,"h","Test",2,"RT",100,"mg","Y",""
"NCAA-001","NCAA-001-002",2,"DRUGX","Drug X concentration","PLASMA",6.3697,"ng/mL",0.5,2,2.01,170.01,"h","Test",2,"RT",100,"mg","Y",""
"NCAA-001","NCAA-001-002",2,"DRUGX","Drug X concentration","PLASMA",5.9426,"ng/mL",0.5,3,3.06,171.06,"h","Test",2,"RT",100,"mg","Y",""
"NCAA-001","NCAA-001-002",2,"DRUGX","Drug X concentration","PLASMA",5.2614,"ng/mL",0.5,4,4.05,172.05,"h","Test",2,"RT",100,"mg","Y",""
"NCAA-001","NCAA-001-002",2,"DRUGX","Drug X concentration","PLASMA",3.9764,"ng/mL",0.5,6,6,174,"h","Test",2,"RT",100,"mg","Y",""
"NCAA-001","NCAA-001-002",2,"DRUGX","Drug X concentration","PLASMA",2.9373,"ng/mL",0.5,8,8.03,176.03,"h","Test",2,"RT",100,"mg","Y",""
"NCAA-001","NCAA-001-002",2,"DRUGX","Drug X concentration","PLASMA",1.61,"ng/mL",0.5,12,12.04,180.04,"h","Test",2,"RT",100,"mg","Y",""
"NCAA-001","NCAA-001-002",2,"DRUGX","Drug X concentration","PLASMA",0.88756,"ng/mL",0.5,16,16.01,184.01,"h","Test",2,"RT",100,"mg","Y",""
"NCAA-001","NCAA-001-002",2,"DRUGX","Drug X concentration","PLASMA",0.26653,"ng/mL",0.5,24,24.03,192.03,"h","Test",2,"RT",100,"mg","Y",""
"NCAA-001","NCAA-001-003",3,"DRUGX","Drug X concentration","PLASMA",0,"ng/mL",0.5,0,-0.14,-0.14,"h","Test",1,"TR",100,"mg","Y",""
"NCAA-001","NCAA-001-003",3,"DRUGX","Drug X concentration","PLASMA",4.9296,"ng/mL",0.5,0.5,0.56,0.56,"h","Test",1,"TR",100,"mg","Y",""
"NCAA-001","NCAA-001-003",3,"DRUGX","Drug X concentration","PLASMA",6.9072,"ng/mL",0.5,1,1.06,1.06,"h","Test",1,"TR",100,"mg","Y",""
"NCAA-001","NCAA-001-003",3,"DRUGX","Drug X concentration","PLASMA",7.7044,"ng/mL",0.5,1.5,1.58,1.58,"h","Test",1,"TR",100,"mg","Y",""
"NCAA-001","NCAA-001-003",3,"DRUGX","Drug X concentration","PLASMA",7.8389,"ng/mL",0.5,2,2.03,2.03,"h","Test",1,"TR",100,"mg","Y",""
"NCAA-001","NCAA-001-003",3,"DRUGX","Drug X concentration","PLASMA",7.3528,"ng/mL",0.5,3,3.01,3.01,"h","Test",1,"TR",100,"mg","Y",""
"NCAA-001","NCAA-001-003",3,"DRUGX","Drug X concentration","PLASMA",6.4933,"ng/mL",0.5,4,4.03,4.03,"h","Test",1,"TR",100,"mg","Y",""
"NCAA-001","NCAA-001-003",3,"DRUGX","Drug X concentration","PLASMA",4.8799,"ng/mL",0.5,6,6.02,6.02,"h","Test",1,"TR",100,"mg","Y",""
"NCAA-001","NCAA-001-003",3,"DRUGX","Drug X concentration","PLASMA",3.5992,"ng/mL",0.5,8,8.06,8.06,"h","Test",1,"TR",100,"mg","Y",""
"NCAA-001","NCAA-001-003",3,"DRUGX","Drug X concentration","PLASMA",1.9757,"ng/mL",0.5,12,12.06,12.06,"h","Test",1,"TR",100,"mg","Y",""
"NCAA-001","NCAA-001-003",3,"DRUGX","Drug X concentration","PLASMA",1.0843,"ng/mL",0.5,16,16.06,16.06,"h","Test",1,"TR",100,"mg","Y",""
"NCAA-001","NCAA-001-003",3,"DRUGX","Drug X concentration","PLASMA",0.32805,"ng/mL",0.5,24,24.03,24.03,"h","Test",1,"TR",100,"mg","Y",""
"NCAA-001","NCAA-001-003",3,"DRUGX","Drug X concentration","PLASMA",0,"ng/mL",0.5,0,-0.21,167.79,"h","Reference",2,"TR",100,"mg","Y",""
"NCAA-001","NCAA-001-003",3,"DRUGX","Drug X concentration","PLASMA",4.5815,"ng/mL",0.5,0.5,0.54,168.54,"h","Reference",2,"TR",100,"mg","Y",""
"NCAA-001","NCAA-001-003",3,"DRUGX","Drug X concentration","PLASMA",6.4493,"ng/mL",0.5,1,1.01,169.01,"h","Reference",2,"TR",100,"mg","Y",""
"NCAA-001","NCAA-001-003",3,"DRUGX","Drug X concentration","PLASMA",7.2949,"ng/mL",0.5,1.5,1.53,169.53,"h","Reference",2,"TR",100,"mg","Y",""
"NCAA-001","NCAA-001-003",3,"DRUGX","Drug X concentration","PLASMA",7.4599,"ng/mL",0.5,2,2.05,170.05,"h","Reference",2,"TR",100,"mg","Y",""
"NCAA-001","NCAA-001-003",3,"DRUGX","Drug X concentration","PLASMA",6.9987,"ng/mL",0.5,3,3.01,171.01,"h","Reference",2,"TR",100,"mg","Y",""
"NCAA-001","NCAA-001-003",3,"DRUGX","Drug X concentration","PLASMA",6.1391,"ng/mL",0.5,4,4.08,172.08,"h","Reference",2,"TR",100,"mg","Y",""
"NCAA-001","NCAA-001-003",3,"DRUGX","Drug X concentration","PLASMA",4.6242,"ng/mL",0.5,6,6.05,174.05,"h","Reference",2,"TR",100,"mg","Y",""
"NCAA-001","NCAA-001-003",3,"DRUGX","Drug X concentration","PLASMA",3.4516,"ng/mL",0.5,8,8.01,176.01,"h","Reference",2,"TR",100,"mg","Y",""
"NCAA-001","NCAA-001-003",3,"DRUGX","Drug X concentration","PLASMA",1.8918,"ng/mL",0.5,12,12.02,180.02,"h","Reference",2,"TR",100,"mg","Y",""
"NCAA-001","NCAA-001-003",3,"DRUGX","Drug X concentration","PLASMA",1.0367,"ng/mL",0.5,16,16.03,184.03,"h","Reference",2,"TR",100,"mg","Y",""
"NCAA-001","NCAA-001-003",3,"DRUGX","Drug X concentration","PLASMA",0.31038,"ng/mL",0.5,24,24.07,192.07,"h","Reference",2,"TR",100,"mg","Y",""
"NCAA-001","NCAA-001-004",4,"DRUGX","Drug X concentration","PLASMA",0,"ng/mL",0.5,0,-0.05,-0.05,"h","Reference",1,"RT",100,"mg","Y",""
"NCAA-001","NCAA-001-004",4,"DRUGX","Drug X concentration","PLASMA",3.1454,"ng/mL",0.5,0.5,0.57,0.57,"h","Reference",1,"RT",100,"mg","Y",""
"NCAA-001","NCAA-001-004",4,"DRUGX","Drug X concentration","PLASMA",4.3082,"ng/mL",0.5,1,1.03,1.03,"h","Reference",1,"RT",100,"mg","Y",""
"NCAA-001","NCAA-001-004",4,"DRUGX","Drug X concentration","PLASMA",4.8399,"ng/mL",0.5,1.5,1.54,1.54,"h","Reference",1,"RT",100,"mg","Y",""
"NCAA-001","NCAA-001-004",4,"DRUGX","Drug X concentration","PLASMA",4.9448,"ng/mL",0.5,2,2.03,2.03,"h","Reference",1,"RT",100,"mg","Y",""
"NCAA-001","NCAA-001-004",4,"DRUGX","Drug X concentration","PLASMA",4.643,"ng/mL",0.5,3,3,3,"h","Reference",1,"RT",100,"mg","Y",""
"NCAA-001","NCAA-001-004",4,"DRUGX","Drug X concentration","PLASMA",4.1015,"ng/mL",0.5,4,4.02,4.02,"h","Reference",1,"RT",100,"mg","Y",""
"NCAA-001","NCAA-001-004",4,"DRUGX","Drug X concentration","PLASMA",3.0828,"ng/mL",0.5,6,6.01,6.01,"h","Reference",1,"RT",100,"mg","Y",""
"NCAA-001","NCAA-001-004",4,"DRUGX","Drug X concentration","PLASMA",2.2704,"ng/mL",0.5,8,8.06,8.06,"h","Reference",1,"RT",100,"mg","Y",""
"NCAA-001","NCAA-001-004",4,"DRUGX","Drug X concentration","PLASMA",1.2556,"ng/mL",0.5,12,12.01,12.01,"h","Reference",1,"RT",100,"mg","Y",""
"NCAA-001","NCAA-001-004",4,"DRUGX","Drug X concentration","PLASMA",0.68808,"ng/mL",0.5,16,16.02,16.02,"h","Reference",1,"RT",100,"mg","Y",""
"NCAA-001","NCAA-001-004",4,"DRUGX","Drug X concentration","PLASMA",0.2057,"ng/mL",0.5,24,24.07,24.07,"h","Reference",1,"RT",100,"mg","Y",""
"NCAA-001","NCAA-001-004",4,"DRUGX","Drug X concentration","PLASMA",0,"ng/mL",0.5,0,-0.21,167.79,"h","Test",2,"RT",100,"mg","Y",""
"NCAA-001","NCAA-001-004",4,"DRUGX","Drug X concentration","PLASMA",2.4215,"ng/mL",0.5,0.5,0.5,168.5,"h","Test",2,"RT",100,"mg","Y",""
"NCAA-001","NCAA-001-004",4,"DRUGX","Drug X concentration","PLASMA",3.5901,"ng/mL",0.5,1,1.01,169.01,"h","Test",2,"RT",100,"mg","Y",""
"NCAA-001","NCAA-001-004",4,"DRUGX","Drug X concentration","PLASMA",4.0609,"ng/mL",0.5,1.5,1.53,169.53,"h","Test",2,"RT",100,"mg","Y",""
"NCAA-001","NCAA-001-004",4,"DRUGX","Drug X concentration","PLASMA",4.1541,"ng/mL",0.5,2,2.01,170.01,"h","Test",2,"RT",100,"mg","Y",""
"NCAA-001","NCAA-001-004",4,"DRUGX","Drug X concentration","PLASMA",3.8879,"ng/mL",0.5,3,3.03,171.03,"h","Test",2,"RT",100,"mg","Y",""
"NCAA-001","NCAA-001-004",4,"DRUGX","Drug X concentration","PLASMA",3.4452,"ng/mL",0.5,4,4.02,172.02,"h","Test",2,"RT",100,"mg","Y",""
"NCAA-001","NCAA-001-004",4,"DRUGX","Drug X concentration","PLASMA",2.5933,"ng/mL",0.5,6,6,174,"h","Test",2,"RT",100,"mg","Y",""
"NCAA-001","NCAA-001-004",4,"DRUGX","Drug X concentration","PLASMA",1.9185,"ng/mL",0.5,8,8.02,176.02,"h","Test",2,"RT",100,"mg","Y",""
"NCAA-001","NCAA-001-004",4,"DRUGX","Drug X concentration","PLASMA",1.0563,"ng/mL",0.5,12,12,180,"h","Test",2,"RT",100,"mg","Y",""
"NCAA-001","NCAA-001-004",4,"DRUGX","Drug X concentration","PLASMA",0.57971,"ng/mL",0.5,16,16,184,"h","Test",2,"RT",100,"mg","Y",""
"NCAA-001","NCAA-001-004",4,"DRUGX","Drug X concentration","PLASMA",0.17461,"ng/mL",0.5,24,24,192,"h","Test",2,"RT",100,"mg","Y",""
"NCAA-001","NCAA-001-005",5,"DRUGX","Drug X concentration","PLASMA",0,"ng/mL",0.5,0,-0.17,-0.17,"h","Test",1,"TR",100,"mg","Y",""
"NCAA-001","NCAA-001-005",5,"DRUGX","Drug X concentration","PLASMA",5.146,"ng/mL",0.5,0.5,0.56,0.56,"h","Test",1,"TR",100,"mg","Y",""
"NCAA-001","NCAA-001-005",5,"DRUGX","Drug X concentration","PLASMA",7.1016,"ng/mL",0.5,1,1.02,1.02,"h","Test",1,"TR",100,"mg","Y",""
"NCAA-001","NCAA-001-005",5,"DRUGX","Drug X concentration","PLASMA",8.0181,"ng/mL",0.5,1.5,1.55,1.55,"h","Test",1,"TR",100,"mg","Y",""
"NCAA-001","NCAA-001-005",5,"DRUGX","Drug X concentration","PLASMA",8.1831,"ng/mL",0.5,2,2.03,2.03,"h","Test",1,"TR",100,"mg","Y",""
"NCAA-001","NCAA-001-005",5,"DRUGX","Drug X concentration","PLASMA",7.6676,"ng/mL",0.5,3,3.02,3.02,"h","Test",1,"TR",100,"mg","Y",""
"NCAA-001","NCAA-001-005",5,"DRUGX","Drug X concentration","PLASMA",6.8057,"ng/mL",0.5,4,4,4,"h","Test",1,"TR",100,"mg","Y",""
"NCAA-001","NCAA-001-005",5,"DRUGX","Drug X concentration","PLASMA",5.064,"ng/mL",0.5,6,6.06,6.06,"h","Test",1,"TR",100,"mg","Y",""
"NCAA-001","NCAA-001-005",5,"DRUGX","Drug X concentration","PLASMA",3.7628,"ng/mL",0.5,8,8.05,8.05,"h","Test",1,"TR",100,"mg","Y",""
"NCAA-001","NCAA-001-005",5,"DRUGX","Drug X concentration","PLASMA",2.0717,"ng/mL",0.5,12,12.03,12.03,"h","Test",1,"TR",100,"mg","Y",""
"NCAA-001","NCAA-001-005",5,"DRUGX","Drug X concentration","PLASMA",1.1421,"ng/mL",0.5,16,16,16,"h","Test",1,"TR",100,"mg","Y",""
"NCAA-001","NCAA-001-005",5,"DRUGX","Drug X concentration","PLASMA",0.34348,"ng/mL",0.5,24,24.01,24.01,"h","Test",1,"TR",100,"mg","Y",""
"NCAA-001","NCAA-001-005",5,"DRUGX","Drug X concentration","PLASMA",0,"ng/mL",0.5,0,-0.16,167.84,"h","Reference",2,"TR",100,"mg","Y",""
"NCAA-001","NCAA-001-005",5,"DRUGX","Drug X concentration","PLASMA",4.9629,"ng/mL",0.5,0.5,0.51,168.51,"h","Reference",2,"TR",100,"mg","Y",""
"NCAA-001","NCAA-001-005",5,"DRUGX","Drug X concentration","PLASMA",7.3173,"ng/mL",0.5,1,1.03,169.03,"h","Reference",2,"TR",100,"mg","Y",""
"NCAA-001","NCAA-001-005",5,"DRUGX","Drug X concentration","PLASMA",8.2111,"ng/mL",0.5,1.5,1.53,169.53,"h","Reference",2,"TR",100,"mg","Y",""
"NCAA-001","NCAA-001-005",5,"DRUGX","Drug X concentration","PLASMA",8.3997,"ng/mL",0.5,2,2.01,170.01,"h","Reference",2,"TR",100,"mg","Y",""
"NCAA-001","NCAA-001-005",5,"DRUGX","Drug X concentration","PLASMA",7.8859,"ng/mL",0.5,3,3,171,"h","Reference",2,"TR",100,"mg","Y",""
"NCAA-001","NCAA-001-005",5,"DRUGX","Drug X concentration","PLASMA",6.985,"ng/mL",0.5,4,4,172,"h","Reference",2,"TR",100,"mg","Y",""
"NCAA-001","NCAA-001-005",5,"DRUGX","Drug X concentration","PLASMA",5.205,"ng/mL",0.5,6,6.05,174.05,"h","Reference",2,"TR",100,"mg","Y",""
"NCAA-001","NCAA-001-005",5,"DRUGX","Drug X concentration","PLASMA",3.8735,"ng/mL",0.5,8,8.03,176.03,"h","Reference",2,"TR",100,"mg","Y",""
"NCAA-001","NCAA-001-005",5,"DRUGX","Drug X concentration","PLASMA",2.1135,"ng/mL",0.5,12,12.07,180.07,"h","Reference",2,"TR",100,"mg","Y",""
"NCAA-001","NCAA-001-005",5,"DRUGX","Drug X concentration","PLASMA",1.1617,"ng/mL",0.5,16,16.06,184.06,"h","Reference",2,"TR",100,"mg","Y",""
"NCAA-001","NCAA-001-005",5,"DRUGX","Drug X concentration","PLASMA",0.352,"ng/mL",0.5,24,24.02,192.02,"h","Reference",2,"TR",100,"mg","Y",""
"NCAA-001","NCAA-001-006",6,"DRUGX","Drug X concentration","PLASMA",0,"ng/mL",0.5,0,-0.24,-0.24,"h","Reference",1,"RT",100,"mg","Y",""
"NCAA-001","NCAA-001-006",6,"DRUGX","Drug X concentration","PLASMA",4.0193,"ng/mL",0.5,0.5,0.53,0.53,"h","Reference",1,"RT",100,"mg","Y",""
"NCAA-001","NCAA-001-006",6,"DRUGX","Drug X concentration","PLASMA",5.861,"ng/mL",0.5,1,1.07,1.07,"h","Reference",1,"RT",100,"mg","Y",""
"NCAA-001","NCAA-001-006",6,"DRUGX","Drug X concentration","PLASMA",6.5139,"ng/mL",0.5,1.5,1.58,1.58,"h","Reference",1,"RT",100,"mg","Y",""
"NCAA-001","NCAA-001-006",6,"DRUGX","Drug X concentration","PLASMA",6.6286,"ng/mL",0.5,2,2.01,2.01,"h","Reference",1,"RT",100,"mg","Y",""
"NCAA-001","NCAA-001-006",6,"DRUGX","Drug X concentration","PLASMA",6.1842,"ng/mL",0.5,3,3.06,3.06,"h","Reference",1,"RT",100,"mg","Y",""
"NCAA-001","NCAA-001-006",6,"DRUGX","Drug X concentration","PLASMA",5.4605,"ng/mL",0.5,4,4.07,4.07,"h","Reference",1,"RT",100,"mg","Y",""
"NCAA-001","NCAA-001-006",6,"DRUGX","Drug X concentration","PLASMA",4.0954,"ng/mL",0.5,6,6.07,6.07,"h","Reference",1,"RT",100,"mg","Y",""
"NCAA-001","NCAA-001-006",6,"DRUGX","Drug X concentration","PLASMA",3.0476,"ng/mL",0.5,8,8.05,8.05,"h","Reference",1,"RT",100,"mg","Y",""
"NCAA-001","NCAA-001-006",6,"DRUGX","Drug X concentration","PLASMA",1.6754,"ng/mL",0.5,12,12.04,12.04,"h","Reference",1,"RT",100,"mg","Y",""
"NCAA-001","NCAA-001-006",6,"DRUGX","Drug X concentration","PLASMA",0.91811,"ng/mL",0.5,16,16.05,16.05,"h","Reference",1,"RT",100,"mg","Y",""
"NCAA-001","NCAA-001-006",6,"DRUGX","Drug X concentration","PLASMA",0.27612,"ng/mL",0.5,24,24.06,24.06,"h","Reference",1,"RT",100,"mg","Y",""
"NCAA-001","NCAA-001-006",6,"DRUGX","Drug X concentration","PLASMA",0,"ng/mL",0.5,0,-0.22,167.78,"h","Test",2,"RT",100,"mg","Y",""
"NCAA-001","NCAA-001-006",6,"DRUGX","Drug X concentration","PLASMA",3.5096,"ng/mL",0.5,0.5,0.53,168.53,"h","Test",2,"RT",100,"mg","Y",""
"NCAA-001","NCAA-001-006",6,"DRUGX","Drug X concentration","PLASMA",5.0994,"ng/mL",0.5,1,1.06,169.06,"h","Test",2,"RT",100,"mg","Y",""
"NCAA-001","NCAA-001-006",6,"DRUGX","Drug X concentration","PLASMA",5.6449,"ng/mL",0.5,1.5,1.51,169.51,"h","Test",2,"RT",100,"mg","Y",""
"NCAA-001","NCAA-001-006",6,"DRUGX","Drug X concentration","PLASMA",5.7861,"ng/mL",0.5,2,2.05,170.05,"h","Test",2,"RT",100,"mg","Y",""
"NCAA-001","NCAA-001-006",6,"DRUGX","Drug X concentration","PLASMA",5.4001,"ng/mL",0.5,3,3.06,171.06,"h","Test",2,"RT",100,"mg","Y",""
"NCAA-001","NCAA-001-006",6,"DRUGX","Drug X concentration","PLASMA",4.8003,"ng/mL",0.5,4,4.02,172.02,"h","Test",2,"RT",100,"mg","Y",""
"NCAA-001","NCAA-001-006",6,"DRUGX","Drug X concentration","PLASMA",3.5973,"ng/mL",0.5,6,6.03,174.03,"h","Test",2,"RT",100,"mg","Y",""
"NCAA-001","NCAA-001-006",6,"DRUGX","Drug X concentration","PLASMA",2.6652,"ng/mL",0.5,8,8.04,176.04,"h","Test",2,"RT",100,"mg","Y",""
"NCAA-001","NCAA-001-006",6,"DRUGX","Drug X concentration","PLASMA",1.4564,"ng/mL",0.5,12,12.07,180.07,"h","Test",2,"RT",100,"mg","Y",""
"NCAA-001","NCAA-001-006",6,"DRUGX","Drug X concentration","PLASMA",0.8005,"ng/mL",0.5,16,16.06,184.06,"h","Test",2,"RT",100,"mg","Y",""
"NCAA-001","NCAA-001-006",6,"DRUGX","Drug X concentration","PLASMA",0.24183,"ng/mL",0.5,24,24.04,192.04,"h","Test",2,"RT",100,"mg","Y",""
"NCAA-001","NCAA-001-007",7,"DRUGX","Drug X concentration","PLASMA",0,"ng/mL",0.5,0,-0.09,-0.09,"h","Test",1,"TR",100,"mg","Y",""
"NCAA-001","NCAA-001-007",7,"DRUGX","Drug X concentration","PLASMA",4.518,"ng/mL",0.5,0.5,0.55,0.55,"h","Test",1,"TR",100,"mg","Y",""
"NCAA-001","NCAA-001-007",7,"DRUGX","Drug X concentration","PLASMA",6.382,"ng/mL",0.5,1,1.05,1.05,"h","Test",1,"TR",100,"mg","Y",""
"NCAA-001","NCAA-001-007",7,"DRUGX","Drug X concentration","PLASMA",7.0991,"ng/mL",0.5,1.5,1.52,1.52,"h","Test",1,"TR",100,"mg","Y",""
"NCAA-001","NCAA-001-007",7,"DRUGX","Drug X concentration","PLASMA",7.2701,"ng/mL",0.5,2,2.02,2.02,"h","Test",1,"TR",100,"mg","Y",""
"NCAA-001","NCAA-001-007",7,"DRUGX","Drug X concentration","PLASMA",6.8045,"ng/mL",0.5,3,3.03,3.03,"h","Test",1,"TR",100,"mg","Y",""
"NCAA-001","NCAA-001-007",7,"DRUGX","Drug X concentration","PLASMA",5.9893,"ng/mL",0.5,4,4.07,4.07,"h","Test",1,"TR",100,"mg","Y",""
"NCAA-001","NCAA-001-007",7,"DRUGX","Drug X concentration","PLASMA",4.5254,"ng/mL",0.5,6,6.02,6.02,"h","Test",1,"TR",100,"mg","Y",""
"NCAA-001","NCAA-001-007",7,"DRUGX","Drug X concentration","PLASMA",3.3477,"ng/mL",0.5,8,8.04,8.04,"h","Test",1,"TR",100,"mg","Y",""
"NCAA-001","NCAA-001-007",7,"DRUGX","Drug X concentration","PLASMA",1.8432,"ng/mL",0.5,12,12.02,12.02,"h","Test",1,"TR",100,"mg","Y",""
"NCAA-001","NCAA-001-007",7,"DRUGX","Drug X concentration","PLASMA",1.0085,"ng/mL",0.5,16,16.04,16.04,"h","Test",1,"TR",100,"mg","Y",""
"NCAA-001","NCAA-001-007",7,"DRUGX","Drug X concentration","PLASMA",0.3024,"ng/mL",0.5,24,24.07,24.07,"h","Test",1,"TR",100,"mg","Y",""
"NCAA-001","NCAA-001-007",7,"DRUGX","Drug X concentration","PLASMA",0,"ng/mL",0.5,0,-0.17,167.83,"h","Reference",2,"TR",100,"mg","Y",""
"NCAA-001","NCAA-001-007",7,"DRUGX","Drug X concentration","PLASMA",5.1069,"ng/mL",0.5,0.5,0.56,168.56,"h","Reference",2,"TR",100,"mg","Y",""
"NCAA-001","NCAA-001-007",7,"DRUGX","Drug X concentration","PLASMA",7.2068,"ng/mL",0.5,1,1.08,169.08,"h","Reference",2,"TR",100,"mg","Y",""
"NCAA-001","NCAA-001-007",7,"DRUGX","Drug X concentration","PLASMA",7.9815,"ng/mL",0.5,1.5,1.58,169.58,"h","Reference",2,"TR",100,"mg","Y",""
"NCAA-001","NCAA-001-007",7,"DRUGX","Drug X concentration","PLASMA",8.1182,"ng/mL",0.5,2,2.06,170.06,"h","Reference",2,"TR",100,"mg","Y",""
"NCAA-001","NCAA-001-007",7,"DRUGX","Drug X concentration","PLASMA",7.5775,"ng/mL",0.5,3,3.06,171.06,"h","Reference",2,"TR",100,"mg","Y",""
"NCAA-001","NCAA-001-007",7,"DRUGX","Drug X concentration","PLASMA",6.6998,"ng/mL",0.5,4,4.06,172.06,"h","Reference",2,"TR",100,"mg","Y",""
"NCAA-001","NCAA-001-007",7,"DRUGX","Drug X concentration","PLASMA",5.0255,"ng/mL",0.5,6,6.06,174.06,"h","Reference",2,"TR",100,"mg","Y",""
"NCAA-001","NCAA-001-007",7,"DRUGX","Drug X concentration","PLASMA",3.7623,"ng/mL",0.5,8,8,176,"h","Reference",2,"TR",100,"mg","Y",""
"NCAA-001","NCAA-001-007",7,"DRUGX","Drug X concentration","PLASMA",2.0591,"ng/mL",0.5,12,12.02,180.02,"h","Reference",2,"TR",100,"mg","Y",""
"NCAA-001","NCAA-001-007",7,"DRUGX","Drug X concentration","PLASMA",1.1199,"ng/mL",0.5,16,16.08,184.08,"h","Reference",2,"TR",100,"mg","Y",""
"NCAA-001","NCAA-001-007",7,"DRUGX","Drug X concentration","PLASMA",0.33782,"ng/mL",0.5,24,24.07,192.07,"h","Reference",2,"TR",100,"mg","Y",""
"NCAA-001","NCAA-001-008",8,"DRUGX","Drug X concentration","PLASMA",0,"ng/mL",0.5,0,-0.15,-0.15,"h","Reference",1,"RT",100,"mg","Y",""
"NCAA-001","NCAA-001-008",8,"DRUGX","Drug X concentration","PLASMA",5.258,"ng/mL",0.5,0.5,0.51,0.51,"h","Reference",1,"RT",100,"mg","Y",""
"NCAA-001","NCAA-001-008",8,"DRUGX","Drug X concentration","PLASMA",7.8116,"ng/mL",0.5,1,1.05,1.05,"h","Reference",1,"RT",100,"mg","Y",""
"NCAA-001","NCAA-001-008",8,"DRUGX","Drug X concentration","PLASMA",8.6894,"ng/mL",0.5,1.5,1.52,1.52,"h","Reference",1,"RT",100,"mg","Y",""
"NCAA-001","NCAA-001-008",8,"DRUGX","Drug X concentration","PLASMA",8.898,"ng/mL",0.5,2,2.03,2.03,"h","Reference",1,"RT",100,"mg","Y",""
"NCAA-001","NCAA-001-008",8,"DRUGX","Drug X concentration","PLASMA",8.3288,"ng/mL",0.5,3,3.03,3.03,"h","Reference",1,"RT",100,"mg","Y",""
"NCAA-001","NCAA-001-008",8,"DRUGX","Drug X concentration","PLASMA",7.3408,"ng/mL",0.5,4,4.06,4.06,"h","Reference",1,"RT",100,"mg","Y",""
"NCAA-001","NCAA-001-008",8,"DRUGX","Drug X concentration","PLASMA",5.5227,"ng/mL",0.5,6,6.04,6.04,"h","Reference",1,"RT",100,"mg","Y",""
"NCAA-001","NCAA-001-008",8,"DRUGX","Drug X concentration","PLASMA",4.0793,"ng/mL",0.5,8,8.07,8.07,"h","Reference",1,"RT",100,"mg","Y",""
"NCAA-001","NCAA-001-008",8,"DRUGX","Drug X concentration","PLASMA",2.2359,"ng/mL",0.5,12,12.08,12.08,"h","Reference",1,"RT",100,"mg","Y",""
"NCAA-001","NCAA-001-008",8,"DRUGX","Drug X concentration","PLASMA",1.2326,"ng/mL",0.5,16,16.05,16.05,"h","Reference",1,"RT",100,"mg","Y",""
"NCAA-001","NCAA-001-008",8,"DRUGX","Drug X concentration","PLASMA",0.37349,"ng/mL",0.5,24,24.01,24.01,"h","Reference",1,"RT",100,"mg","Y",""
"NCAA-001","NCAA-001-008",8,"DRUGX","Drug X concentration","PLASMA",0,"ng/mL",0.5,0,-0.08,167.92,"h","Test",2,"RT",100,"mg","Y",""
"NCAA-001","NCAA-001-008",8,"DRUGX","Drug X concentration","PLASMA",3.7346,"ng/mL",0.5,0.5,0.56,168.56,"h","Test",2,"RT",100,"mg","Y",""
"NCAA-001","NCAA-001-008",8,"DRUGX","Drug X concentration","PLASMA",5.2517,"ng/mL",0.5,1,1.07,169.07,"h","Test",2,"RT",100,"mg","Y",""
"NCAA-001","NCAA-001-008",8,"DRUGX","Drug X concentration","PLASMA",5.8062,"ng/mL",0.5,1.5,1.53,169.53,"h","Test",2,"RT",100,"mg","Y",""
"NCAA-001","NCAA-001-008",8,"DRUGX","Drug X concentration","PLASMA",5.9368,"ng/mL",0.5,2,2.06,170.06,"h","Test",2,"RT",100,"mg","Y",""
"NCAA-001","NCAA-001-008",8,"DRUGX","Drug X concentration","PLASMA",5.5647,"ng/mL",0.5,3,3.02,171.02,"h","Test",2,"RT",100,"mg","Y",""
"NCAA-001","NCAA-001-008",8,"DRUGX","Drug X concentration","PLASMA",4.9061,"ng/mL",0.5,4,4.05,172.05,"h","Test",2,"RT",100,"mg","Y",""
"NCAA-001","NCAA-001-008",8,"DRUGX","Drug X concentration","PLASMA",3.6642,"ng/mL",0.5,6,6.08,174.08,"h","Test",2,"RT",100,"mg","Y",""
"NCAA-001","NCAA-001-008",8,"DRUGX","Drug X concentration","PLASMA",2.7513,"ng/mL",0.5,8,8,176,"h","Test",2,"RT",100,"mg","Y",""
"NCAA-001","NCAA-001-008",8,"DRUGX","Drug X concentration","PLASMA",1.4923,"ng/mL",0.5,12,12.08,180.08,"h","Test",2,"RT",100,"mg","Y",""
"NCAA-001","NCAA-001-008",8,"DRUGX","Drug X concentration","PLASMA",0.82639,"ng/mL",0.5,16,16.02,184.02,"h","Test",2,"RT",100,"mg","Y",""
"NCAA-001","NCAA-001-008",8,"DRUGX","Drug X concentration","PLASMA",0.24816,"ng/mL",0.5,24,24.04,192.04,"h","Test",2,"RT",100,"mg","Y",""
"NCAA-001","NCAA-001-009",9,"DRUGX","Drug X concentration","PLASMA",0,"ng/mL",0.5,0,-0.2,-0.2,"h","Test",1,"TR",100,"mg","Y",""
"NCAA-001","NCAA-001-009",9,"DRUGX","Drug X concentration","PLASMA",5.3336,"ng/mL",0.5,0.5,0.56,0.56,"h","Test",1,"TR",100,"mg","Y",""
"NCAA-001","NCAA-001-009",9,"DRUGX","Drug X concentration","PLASMA",7.3605,"ng/mL",0.5,1,1.02,1.02,"h","Test",1,"TR",100,"mg","Y",""
"NCAA-001","NCAA-001-009",9,"DRUGX","Drug X concentration","PLASMA",8.3276,"ng/mL",0.5,1.5,1.57,1.57,"h","Test",1,"TR",100,"mg","Y",""
"NCAA-001","NCAA-001-009",9,"DRUGX","Drug X concentration","PLASMA",8.4814,"ng/mL",0.5,2,2.03,2.03,"h","Test",1,"TR",100,"mg","Y",""
"NCAA-001","NCAA-001-009",9,"DRUGX","Drug X concentration","PLASMA",7.9223,"ng/mL",0.5,3,3.05,3.05,"h","Test",1,"TR",100,"mg","Y",""
"NCAA-001","NCAA-001-009",9,"DRUGX","Drug X concentration","PLASMA",7.0161,"ng/mL",0.5,4,4.04,4.04,"h","Test",1,"TR",100,"mg","Y",""
"NCAA-001","NCAA-001-009",9,"DRUGX","Drug X concentration","PLASMA",5.2642,"ng/mL",0.5,6,6.04,6.04,"h","Test",1,"TR",100,"mg","Y",""
"NCAA-001","NCAA-001-009",9,"DRUGX","Drug X concentration","PLASMA",3.9058,"ng/mL",0.5,8,8.04,8.04,"h","Test",1,"TR",100,"mg","Y",""
"NCAA-001","NCAA-001-009",9,"DRUGX","Drug X concentration","PLASMA",2.1344,"ng/mL",0.5,12,12.07,12.07,"h","Test",1,"TR",100,"mg","Y",""
"NCAA-001","NCAA-001-009",9,"DRUGX","Drug X concentration","PLASMA",1.1837,"ng/mL",0.5,16,16,16,"h","Test",1,"TR",100,"mg","Y",""
"NCAA-001","NCAA-001-009",9,"DRUGX","Drug X concentration","PLASMA",0.35334,"ng/mL",0.5,24,24.06,24.06,"h","Test",1,"TR",100,"mg","Y",""
"NCAA-001","NCAA-001-009",9,"DRUGX","Drug X concentration","PLASMA",0,"ng/mL",0.5,0,-0.09,167.91,"h","Reference",2,"TR",100,"mg","Y",""
"NCAA-001","NCAA-001-009",9,"DRUGX","Drug X concentration","PLASMA",5.2741,"ng/mL",0.5,0.5,0.58,168.58,"h","Reference",2,"TR",100,"mg","Y",""
"NCAA-001","NCAA-001-009",9,"DRUGX","Drug X concentration","PLASMA",7.1155,"ng/mL",0.5,1,1.02,169.02,"h","Reference",2,"TR",100,"mg","Y",""
"NCAA-001","NCAA-001-009",9,"DRUGX","Drug X concentration","PLASMA",8.0338,"ng/mL",0.5,1.5,1.55,169.55,"h","Reference",2,"TR",100,"mg","Y",""
"NCAA-001","NCAA-001-009",9,"DRUGX","Drug X concentration","PLASMA",8.1983,"ng/mL",0.5,2,2.04,170.04,"h","Reference",2,"TR",100,"mg","Y",""
"NCAA-001","NCAA-001-009",9,"DRUGX","Drug X concentration","PLASMA",7.6505,"ng/mL",0.5,3,3.06,171.06,"h","Reference",2,"TR",100,"mg","Y",""
"NCAA-001","NCAA-001-009",9,"DRUGX","Drug X concentration","PLASMA",6.8099,"ng/mL",0.5,4,4.01,172.01,"h","Reference",2,"TR",100,"mg","Y",""
"NCAA-001","NCAA-001-009",9,"DRUGX","Drug X concentration","PLASMA",5.0814,"ng/mL",0.5,6,6.05,174.05,"h","Reference",2,"TR",100,"mg","Y",""
"NCAA-001","NCAA-001-009",9,"DRUGX","Drug X concentration","PLASMA",3.7533,"ng/mL",0.5,8,8.08,176.08,"h","Reference",2,"TR",100,"mg","Y",""
"NCAA-001","NCAA-001-009",9,"DRUGX","Drug X concentration","PLASMA",2.0789,"ng/mL",0.5,12,12.02,180.02,"h","Reference",2,"TR",100,"mg","Y",""
"NCAA-001","NCAA-001-009",9,"DRUGX","Drug X concentration","PLASMA",1.1358,"ng/mL",0.5,16,16.05,184.05,"h","Reference",2,"TR",100,"mg","Y",""
"NCAA-001","NCAA-001-009",9,"DRUGX","Drug X concentration","PLASMA",0.3421,"ng/mL",0.5,24,24.05,192.05,"h","Reference",2,"TR",100,"mg","Y",""
"NCAA-001","NCAA-001-010",10,"DRUGX","Drug X concentration","PLASMA",0,"ng/mL",0.5,0,-0.17,-0.17,"h","Reference",1,"RT",100,"mg","Y",""
"NCAA-001","NCAA-001-010",10,"DRUGX","Drug X concentration","PLASMA",4.0723,"ng/mL",0.5,0.5,0.53,0.53,"h","Reference",1,"RT",100,"mg","Y",""
"NCAA-001","NCAA-001-010",10,"DRUGX","Drug X concentration","PLASMA",5.8952,"ng/mL",0.5,1,1.05,1.05,"h","Reference",1,"RT",100,"mg","Y",""
"NCAA-001","NCAA-001-010",10,"DRUGX","Drug X concentration","PLASMA",6.5933,"ng/mL",0.5,1.5,1.57,1.57,"h","Reference",1,"RT",100,"mg","Y",""
"NCAA-001","NCAA-001-010",10,"DRUGX","Drug X concentration","PLASMA",6.716,"ng/mL",0.5,2,2.01,2.01,"h","Reference",1,"RT",100,"mg","Y",""
"NCAA-001","NCAA-001-010",10,"DRUGX","Drug X concentration","PLASMA",6.2724,"ng/mL",0.5,3,3.05,3.05,"h","Reference",1,"RT",100,"mg","Y",""
"NCAA-001","NCAA-001-010",10,"DRUGX","Drug X concentration","PLASMA",5.54,"ng/mL",0.5,4,4.06,4.06,"h","Reference",1,"RT",100,"mg","Y",""
"NCAA-001","NCAA-001-010",10,"DRUGX","Drug X concentration","PLASMA",4.1679,"ng/mL",0.5,6,6.04,6.04,"h","Reference",1,"RT",100,"mg","Y",""
"NCAA-001","NCAA-001-010",10,"DRUGX","Drug X concentration","PLASMA",3.0832,"ng/mL",0.5,8,8.06,8.06,"h","Reference",1,"RT",100,"mg","Y",""
"NCAA-001","NCAA-001-010",10,"DRUGX","Drug X concentration","PLASMA",1.6975,"ng/mL",0.5,12,12.04,12.04,"h","Reference",1,"RT",100,"mg","Y",""
"NCAA-001","NCAA-001-010",10,"DRUGX","Drug X concentration","PLASMA",0.92883,"ng/mL",0.5,16,16.06,16.06,"h","Reference",1,"RT",100,"mg","Y",""
"NCAA-001","NCAA-001-010",10,"DRUGX","Drug X concentration","PLASMA",0.2806,"ng/mL",0.5,24,24.04,24.04,"h","Reference",1,"RT",100,"mg","Y",""
"NCAA-001","NCAA-001-010",10,"DRUGX","Drug X concentration","PLASMA",0,"ng/mL",0.5,0,-0.22,167.78,"h","Test",2,"RT",100,"mg","Y",""
"NCAA-001","NCAA-001-010",10,"DRUGX","Drug X concentration","PLASMA",4.9152,"ng/mL",0.5,0.5,0.54,168.54,"h","Test",2,"RT",100,"mg","Y",""
"NCAA-001","NCAA-001-010",10,"DRUGX","Drug X concentration","PLASMA",7.0535,"ng/mL",0.5,1,1.06,169.06,"h","Test",2,"RT",100,"mg","Y",""
"NCAA-001","NCAA-001-010",10,"DRUGX","Drug X concentration","PLASMA",7.8598,"ng/mL",0.5,1.5,1.57,169.57,"h","Test",2,"RT",100,"mg","Y",""
"NCAA-001","NCAA-001-010",10,"DRUGX","Drug X concentration","PLASMA",8.0033,"ng/mL",0.5,2,2.05,170.05,"h","Test",2,"RT",100,"mg","Y",""
"NCAA-001","NCAA-001-010",10,"DRUGX","Drug X concentration","PLASMA",7.5085,"ng/mL",0.5,3,3.01,171.01,"h","Test",2,"RT",100,"mg","Y",""
"NCAA-001","NCAA-001-010",10,"DRUGX","Drug X concentration","PLASMA",6.613,"ng/mL",0.5,4,4.05,172.05,"h","Test",2,"RT",100,"mg","Y",""
"NCAA-001","NCAA-001-010",10,"DRUGX","Drug X concentration","PLASMA",4.9832,"ng/mL",0.5,6,6.02,174.02,"h","Test",2,"RT",100,"mg","Y",""
"NCAA-001","NCAA-001-010",10,"DRUGX","Drug X concentration","PLASMA",3.6699,"ng/mL",0.5,8,8.07,176.07,"h","Test",2,"RT",100,"mg","Y",""
"NCAA-001","NCAA-001-010",10,"DRUGX","Drug X concentration","PLASMA",2.0205,"ng/mL",0.5,12,12.05,180.05,"h","Test",2,"RT",100,"mg","Y",""
"NCAA-001","NCAA-001-010",10,"DRUGX","Drug X concentration","PLASMA",1.1156,"ng/mL",0.5,16,16.01,184.01,"h","Test",2,"RT",100,"mg","Y",""
"NCAA-001","NCAA-001-010",10,"DRUGX","Drug X concentration","PLASMA",0.334,"ng/mL",0.5,24,24.05,192.05,"h","Test",2,"RT",100,"mg","Y",""
"NCAA-001","NCAA-001-011",11,"DRUGX","Drug X concentration","PLASMA",0,"ng/mL",0.5,0,-0.17,-0.17,"h","Test",1,"TR",100,"mg","Y",""
"NCAA-001","NCAA-001-011",11,"DRUGX","Drug X concentration","PLASMA",3.5781,"ng/mL",0.5,0.5,0.54,0.54,"h","Test",1,"TR",100,"mg","Y",""
"NCAA-001","NCAA-001-011",11,"DRUGX","Drug X concentration","PLASMA",5.0771,"ng/mL",0.5,1,1.03,1.03,"h","Test",1,"TR",100,"mg","Y",""
"NCAA-001","NCAA-001-011",11,"DRUGX","Drug X concentration","PLASMA",5.6973,"ng/mL",0.5,1.5,1.53,1.53,"h","Test",1,"TR",100,"mg","Y",""
"NCAA-001","NCAA-001-011",11,"DRUGX","Drug X concentration","PLASMA",5.8268,"ng/mL",0.5,2,2.04,2.04,"h","Test",1,"TR",100,"mg","Y",""
"NCAA-001","NCAA-001-011",11,"DRUGX","Drug X concentration","PLASMA",5.4489,"ng/mL",0.5,3,3.04,3.04,"h","Test",1,"TR",100,"mg","Y",""
"NCAA-001","NCAA-001-011",11,"DRUGX","Drug X concentration","PLASMA",4.8141,"ng/mL",0.5,4,4.05,4.05,"h","Test",1,"TR",100,"mg","Y",""
"NCAA-001","NCAA-001-011",11,"DRUGX","Drug X concentration","PLASMA",3.6169,"ng/mL",0.5,6,6.04,6.04,"h","Test",1,"TR",100,"mg","Y",""
"NCAA-001","NCAA-001-011",11,"DRUGX","Drug X concentration","PLASMA",2.6957,"ng/mL",0.5,8,8.01,8.01,"h","Test",1,"TR",100,"mg","Y",""
"NCAA-001","NCAA-001-011",11,"DRUGX","Drug X concentration","PLASMA",1.4753,"ng/mL",0.5,12,12.03,12.03,"h","Test",1,"TR",100,"mg","Y",""
"NCAA-001","NCAA-001-011",11,"DRUGX","Drug X concentration","PLASMA",0.81211,"ng/mL",0.5,16,16.01,16.01,"h","Test",1,"TR",100,"mg","Y",""
"NCAA-001","NCAA-001-011",11,"DRUGX","Drug X concentration","PLASMA",0.24387,"ng/mL",0.5,24,24.03,24.03,"h","Test",1,"TR",100,"mg","Y",""
"NCAA-001","NCAA-001-011",11,"DRUGX","Drug X concentration","PLASMA",0,"ng/mL",0.5,0,-0.06,167.94,"h","Reference",2,"TR",100,"mg","Y",""
"NCAA-001","NCAA-001-011",11,"DRUGX","Drug X concentration","PLASMA",5.0662,"ng/mL",0.5,0.5,0.58,168.58,"h","Reference",2,"TR",100,"mg","Y",""
"NCAA-001","NCAA-001-011",11,"DRUGX","Drug X concentration","PLASMA",6.7798,"ng/mL",0.5,1,1,169,"h","Reference",2,"TR",100,"mg","Y",""
"NCAA-001","NCAA-001-011",11,"DRUGX","Drug X concentration","PLASMA",7.7408,"ng/mL",0.5,1.5,1.58,169.58,"h","Reference",2,"TR",100,"mg","Y",""
"NCAA-001","NCAA-001-011",11,"DRUGX","Drug X concentration","PLASMA",7.8744,"ng/mL",0.5,2,2.05,170.05,"h","Reference",2,"TR",100,"mg","Y",""
"NCAA-001","NCAA-001-011",11,"DRUGX","Drug X concentration","PLASMA",7.3876,"ng/mL",0.5,3,3.01,171.01,"h","Reference",2,"TR",100,"mg","Y",""
"NCAA-001","NCAA-001-011",11,"DRUGX","Drug X concentration","PLASMA",6.4977,"ng/mL",0.5,4,4.06,172.06,"h","Reference",2,"TR",100,"mg","Y",""
"NCAA-001","NCAA-001-011",11,"DRUGX","Drug X concentration","PLASMA",4.9102,"ng/mL",0.5,6,6.01,174.01,"h","Reference",2,"TR",100,"mg","Y",""
"NCAA-001","NCAA-001-011",11,"DRUGX","Drug X concentration","PLASMA",3.6434,"ng/mL",0.5,8,8.01,176.01,"h","Reference",2,"TR",100,"mg","Y",""
"NCAA-001","NCAA-001-011",11,"DRUGX","Drug X concentration","PLASMA",1.994,"ng/mL",0.5,12,12.03,180.03,"h","Reference",2,"TR",100,"mg","Y",""
"NCAA-001","NCAA-001-011",11,"DRUGX","Drug X concentration","PLASMA",1.0976,"ng/mL",0.5,16,16.01,184.01,"h","Reference",2,"TR",100,"mg","Y",""
"NCAA-001","NCAA-001-011",11,"DRUGX","Drug X concentration","PLASMA",0.33059,"ng/mL",0.5,24,24.01,192.01,"h","Reference",2,"TR",100,"mg","Y",""
"NCAA-001","NCAA-001-012",12,"DRUGX","Drug X concentration","PLASMA",0,"ng/mL",0.5,0,-0.08,-0.08,"h","Reference",1,"RT",100,"mg","Y",""
"NCAA-001","NCAA-001-012",12,"DRUGX","Drug X concentration","PLASMA",3.1113,"ng/mL",0.5,0.5,0.52,0.52,"h","Reference",1,"RT",100,"mg","Y",""
"NCAA-001","NCAA-001-012",12,"DRUGX","Drug X concentration","PLASMA",4.5621,"ng/mL",0.5,1,1.05,1.05,"h","Reference",1,"RT",100,"mg","Y",""
"NCAA-001","NCAA-001-012",12,"DRUGX","Drug X concentration","PLASMA",5.1023,"ng/mL",0.5,1.5,1.57,1.57,"h","Reference",1,"RT",100,"mg","Y",""
"NCAA-001","NCAA-001-012",12,"DRUGX","Drug X concentration","PLASMA",5.196,"ng/mL",0.5,2,2.04,2.04,"h","Reference",1,"RT",100,"mg","Y",""
"NCAA-001","NCAA-001-012",12,"DRUGX","Drug X concentration","PLASMA",4.8539,"ng/mL",0.5,3,3.05,3.05,"h","Reference",1,"RT",100,"mg","Y",""
"NCAA-001","NCAA-001-012",12,"DRUGX","Drug X concentration","PLASMA",4.2929,"ng/mL",0.5,4,4.05,4.05,"h","Reference",1,"RT",100,"mg","Y",""
"NCAA-001","NCAA-001-012",12,"DRUGX","Drug X concentration","PLASMA",3.2397,"ng/mL",0.5,6,6.01,6.01,"h","Reference",1,"RT",100,"mg","Y",""
"NCAA-001","NCAA-001-012",12,"DRUGX","Drug X concentration","PLASMA",2.3967,"ng/mL",0.5,8,8.03,8.03,"h","Reference",1,"RT",100,"mg","Y",""
"NCAA-001","NCAA-001-012",12,"DRUGX","Drug X concentration","PLASMA",1.3077,"ng/mL",0.5,12,12.07,12.07,"h","Reference",1,"RT",100,"mg","Y",""
"NCAA-001","NCAA-001-012",12,"DRUGX","Drug X concentration","PLASMA",0.72094,"ng/mL",0.5,16,16.04,16.04,"h","Reference",1,"RT",100,"mg","Y",""
"NCAA-001","NCAA-001-012",12,"DRUGX","Drug X concentration","PLASMA",0.21617,"ng/mL",0.5,24,24.07,24.07,"h","Reference",1,"RT",100,"mg","Y",""
"NCAA-001","NCAA-001-012",12,"DRUGX","Drug X concentration","PLASMA",0,"ng/mL",0.5,0,-0.14,167.86,"h","Test",2,"RT",100,"mg","Y",""
"NCAA-001","NCAA-001-012",12,"DRUGX","Drug X concentration","PLASMA",5.202,"ng/mL",0.5,0.5,0.58,168.58,"h","Test",2,"RT",100,"mg","Y",""
"NCAA-001","NCAA-001-012",12,"DRUGX","Drug X concentration","PLASMA",7.0459,"ng/mL",0.5,1,1.03,169.03,"h","Test",2,"RT",100,"mg","Y",""
"NCAA-001","NCAA-001-012",12,"DRUGX","Drug X concentration","PLASMA",7.924,"ng/mL",0.5,1.5,1.55,169.55,"h","Test",2,"RT",100,"mg","Y",""
"NCAA-001","NCAA-001-012",12,"DRUGX","Drug X concentration","PLASMA",8.0885,"ng/mL",0.5,2,2,170,"h","Test",2,"RT",100,"mg","Y",""
"NCAA-001","NCAA-001-012",12,"DRUGX","Drug X concentration","PLASMA",7.5539,"ng/mL",0.5,3,3.05,171.05,"h","Test",2,"RT",100,"mg","Y",""
"NCAA-001","NCAA-001-012",12,"DRUGX","Drug X concentration","PLASMA",6.6898,"ng/mL",0.5,4,4.04,172.04,"h","Test",2,"RT",100,"mg","Y",""
"NCAA-001","NCAA-001-012",12,"DRUGX","Drug X concentration","PLASMA",5.012,"ng/mL",0.5,6,6.05,174.05,"h","Test",2,"RT",100,"mg","Y",""
"NCAA-001","NCAA-001-012",12,"DRUGX","Drug X concentration","PLASMA",3.741,"ng/mL",0.5,8,8.01,176.01,"h","Test",2,"RT",100,"mg","Y",""
"NCAA-001","NCAA-001-012",12,"DRUGX","Drug X concentration","PLASMA",2.0413,"ng/mL",0.5,12,12.05,180.05,"h","Test",2,"RT",100,"mg","Y",""
"NCAA-001","NCAA-001-012",12,"DRUGX","Drug X concentration","PLASMA",1.1186,"ng/mL",0.5,16,16.06,184.06,"h","Test",2,"RT",100,"mg","Y",""
"NCAA-001","NCAA-001-012",12,"DRUGX","Drug X concentration","PLASMA",0.33691,"ng/mL",0.5,24,24.06,192.06,"h","Test",2,"RT",100,"mg","Y",""
"NCAA-001","NCAA-001-001",1,"DRUGXM1","Drug X metabolite M1 concentration","PLASMA",0,"ng/mL",0.5,0,-0.11,-0.11,"h","Test",1,"TR",100,"mg","Y",""
"NCAA-001","NCAA-001-001",1,"DRUGXM1","Drug X metabolite M1 concentration","PLASMA",1.0771,"ng/mL",0.5,0.5,0.51,0.51,"h","Test",1,"TR",100,"mg","Y",""
"NCAA-001","NCAA-001-001",1,"DRUGXM1","Drug X metabolite M1 concentration","PLASMA",1.5943,"ng/mL",0.5,1,1.04,1.04,"h","Test",1,"TR",100,"mg","Y",""
"NCAA-001","NCAA-001-001",1,"DRUGXM1","Drug X metabolite M1 concentration","PLASMA",1.7801,"ng/mL",0.5,1.5,1.52,1.52,"h","Test",1,"TR",100,"mg","Y",""
"NCAA-001","NCAA-001-001",1,"DRUGXM1","Drug X metabolite M1 concentration","PLASMA",1.8222,"ng/mL",0.5,2,2.06,2.06,"h","Test",1,"TR",100,"mg","Y",""
"NCAA-001","NCAA-001-001",1,"DRUGXM1","Drug X metabolite M1 concentration","PLASMA",1.708,"ng/mL",0.5,3,3.02,3.02,"h","Test",1,"TR",100,"mg","Y",""
"NCAA-001","NCAA-001-001",1,"DRUGXM1","Drug X metabolite M1 concentration","PLASMA",1.5119,"ng/mL",0.5,4,4.02,4.02,"h","Test",1,"TR",100,"mg","Y",""
"NCAA-001","NCAA-001-001",1,"DRUGXM1","Drug X metabolite M1 concentration","PLASMA",1.1297,"ng/mL",0.5,6,6.05,6.05,"h","Test",1,"TR",100,"mg","Y",""
"NCAA-001","NCAA-001-001",1,"DRUGXM1","Drug X metabolite M1 concentration","PLASMA",0.83568,"ng/mL",0.5,8,8.07,8.07,"h","Test",1,"TR",100,"mg","Y",""
"NCAA-001","NCAA-001-001",1,"DRUGXM1","Drug X metabolite M1 concentration","PLASMA",0.46356,"ng/mL",0.5,12,12,12,"h","Test",1,"TR",100,"mg","Y",""
"NCAA-001","NCAA-001-001",1,"DRUGXM1","Drug X metabolite M1 concentration","PLASMA",0.25175,"ng/mL",0.5,16,16.07,16.07,"h","Test",1,"TR",100,"mg","Y",""
"NCAA-001","NCAA-001-001",1,"DRUGXM1","Drug X metabolite M1 concentration","PLASMA",0.076626,"ng/mL",0.5,24,24,24,"h","Test",1,"TR",100,"mg","Y",""
"NCAA-001","NCAA-001-001",1,"DRUGXM1","Drug X metabolite M1 concentration","PLASMA",0,"ng/mL",0.5,0,-0.16,167.84,"h","Reference",2,"TR",100,"mg","Y",""
"NCAA-001","NCAA-001-001",1,"DRUGXM1","Drug X metabolite M1 concentration","PLASMA",1.0917,"ng/mL",0.5,0.5,0.51,168.51,"h","Reference",2,"TR",100,"mg","Y",""
"NCAA-001","NCAA-001-001",1,"DRUGXM1","Drug X metabolite M1 concentration","PLASMA",1.5904,"ng/mL",0.5,1,1,169,"h","Reference",2,"TR",100,"mg","Y",""
"NCAA-001","NCAA-001-001",1,"DRUGXM1","Drug X metabolite M1 concentration","PLASMA",1.8103,"ng/mL",0.5,1.5,1.55,169.55,"h","Reference",2,"TR",100,"mg","Y",""
"NCAA-001","NCAA-001-001",1,"DRUGXM1","Drug X metabolite M1 concentration","PLASMA",1.8475,"ng/mL",0.5,2,2.03,170.03,"h","Reference",2,"TR",100,"mg","Y",""
"NCAA-001","NCAA-001-001",1,"DRUGXM1","Drug X metabolite M1 concentration","PLASMA",1.7202,"ng/mL",0.5,3,3.08,171.08,"h","Reference",2,"TR",100,"mg","Y",""
"NCAA-001","NCAA-001-001",1,"DRUGXM1","Drug X metabolite M1 concentration","PLASMA",1.5283,"ng/mL",0.5,4,4.04,172.04,"h","Reference",2,"TR",100,"mg","Y",""
"NCAA-001","NCAA-001-001",1,"DRUGXM1","Drug X metabolite M1 concentration","PLASMA",1.1535,"ng/mL",0.5,6,6,174,"h","Reference",2,"TR",100,"mg","Y",""
"NCAA-001","NCAA-001-001",1,"DRUGXM1","Drug X metabolite M1 concentration","PLASMA",0.8508,"ng/mL",0.5,8,8.04,176.04,"h","Reference",2,"TR",100,"mg","Y",""
"NCAA-001","NCAA-001-001",1,"DRUGXM1","Drug X metabolite M1 concentration","PLASMA",0.46632,"ng/mL",0.5,12,12.05,180.05,"h","Reference",2,"TR",100,"mg","Y",""
"NCAA-001","NCAA-001-001",1,"DRUGXM1","Drug X metabolite M1 concentration","PLASMA",0.2567,"ng/mL",0.5,16,16.03,184.03,"h","Reference",2,"TR",100,"mg","Y",""
"NCAA-001","NCAA-001-001",1,"DRUGXM1","Drug X metabolite M1 concentration","PLASMA",0.07674,"ng/mL",0.5,24,24.08,192.08,"h","Reference",2,"TR",100,"mg","Y",""
"NCAA-001","NCAA-001-002",2,"DRUGXM1","Drug X metabolite M1 concentration","PLASMA",0,"ng/mL",0.5,0,-0.11,-0.11,"h","Reference",1,"RT",100,"mg","Y",""
"NCAA-001","NCAA-001-002",2,"DRUGXM1","Drug X metabolite M1 concentration","PLASMA",1.2313,"ng/mL",0.5,0.5,0.53,0.53,"h","Reference",1,"RT",100,"mg","Y",""
"NCAA-001","NCAA-001-002",2,"DRUGXM1","Drug X metabolite M1 concentration","PLASMA",1.7758,"ng/mL",0.5,1,1.04,1.04,"h","Reference",1,"RT",100,"mg","Y",""
"NCAA-001","NCAA-001-002",2,"DRUGXM1","Drug X metabolite M1 concentration","PLASMA",1.9955,"ng/mL",0.5,1.5,1.58,1.58,"h","Reference",1,"RT",100,"mg","Y",""
"NCAA-001","NCAA-001-002",2,"DRUGXM1","Drug X metabolite M1 concentration","PLASMA",2.0308,"ng/mL",0.5,2,2,2,"h","Reference",1,"RT",100,"mg","Y",""
"NCAA-001","NCAA-001-002",2,"DRUGXM1","Drug X metabolite M1 concentration","PLASMA",1.9005,"ng/mL",0.5,3,3.03,3.03,"h","Reference",1,"RT",100,"mg","Y",""
"NCAA-001","NCAA-001-002",2,"DRUGXM1","Drug X metabolite M1 concentration","PLASMA",1.6864,"ng/mL",0.5,4,4.01,4.01,"h","Reference",1,"RT",100,"mg","Y",""
"NCAA-001","NCAA-001-002",2,"DRUGXM1","Drug X metabolite M1 concentration","PLASMA",1.2621,"ng/mL",0.5,6,6.03,6.03,"h","Reference",1,"RT",100,"mg","Y",""
"NCAA-001","NCAA-001-002",2,"DRUGXM1","Drug X metabolite M1 concentration","PLASMA",0.93363,"ng/mL",0.5,8,8.05,8.05,"h","Reference",1,"RT",100,"mg","Y",""
"NCAA-001","NCAA-001-002",2,"DRUGXM1","Drug X metabolite M1 concentration","PLASMA",0.51249,"ng/mL",0.5,12,12.05,12.05,"h","Reference",1,"RT",100,"mg","Y",""
"NCAA-001","NCAA-001-002",2,"DRUGXM1","Drug X metabolite M1 concentration","PLASMA",0.28126,"ng/mL",0.5,16,16.05,16.05,"h","Reference",1,"RT",100,"mg","Y",""
"NCAA-001","NCAA-001-002",2,"DRUGXM1","Drug X metabolite M1 concentration","PLASMA",0.084462,"ng/mL",0.5,24,24.07,24.07,"h","Reference",1,"RT",100,"mg","Y",""
"NCAA-001","NCAA-001-002",2,"DRUGXM1","Drug X metabolite M1 concentration","PLASMA",0,"ng/mL",0.5,0,-0.22,167.78,"h","Test",2,"RT",100,"mg","Y",""
"NCAA-001","NCAA-001-002",2,"DRUGXM1","Drug X metabolite M1 concentration","PLASMA",1.1875,"ng/mL",0.5,0.5,0.55,168.55,"h","Test",2,"RT",100,"mg","Y",""
"NCAA-001","NCAA-001-002",2,"DRUGXM1","Drug X metabolite M1 concentration","PLASMA",1.6896,"ng/mL",0.5,1,1.07,169.07,"h","Test",2,"RT",100,"mg","Y",""
"NCAA-001","NCAA-001-002",2,"DRUGXM1","Drug X metabolite M1 concentration","PLASMA",1.8614,"ng/mL",0.5,1.5,1.5,169.5,"h","Test",2,"RT",100,"mg","Y",""
"NCAA-001","NCAA-001-002",2,"DRUGXM1","Drug X metabolite M1 concentration","PLASMA",1.9109,"ng/mL",0.5,2,2.01,170.01,"h","Test",2,"RT",100,"mg","Y",""
"NCAA-001","NCAA-001-002",2,"DRUGXM1","Drug X metabolite M1 concentration","PLASMA",1.7828,"ng/mL",0.5,3,3.06,171.06,"h","Test",2,"RT",100,"mg","Y",""
"NCAA-001","NCAA-001-002",2,"DRUGXM1","Drug X metabolite M1 concentration","PLASMA",1.5784,"ng/mL",0.5,4,4.05,172.05,"h","Test",2,"RT",100,"mg","Y",""
"NCAA-001","NCAA-001-002",2,"DRUGXM1","Drug X metabolite M1 concentration","PLASMA",1.1929,"ng/mL",0.5,6,6,174,"h","Test",2,"RT",100,"mg","Y",""
"NCAA-001","NCAA-001-002",2,"DRUGXM1","Drug X metabolite M1 concentration","PLASMA",0.88119,"ng/mL",0.5,8,8.03,176.03,"h","Test",2,"RT",100,"mg","Y",""
"NCAA-001","NCAA-001-002",2,"DRUGXM1","Drug X metabolite M1 concentration","PLASMA",0.483,"ng/mL",0.5,12,12.04,180.04,"h","Test",2,"RT",100,"mg","Y",""
"NCAA-001","NCAA-001-002",2,"DRUGXM1","Drug X metabolite M1 concentration","PLASMA",0.26627,"ng/mL",0.5,16,16.01,184.01,"h","Test",2,"RT",100,"mg","Y",""
"NCAA-001","NCAA-001-002",2,"DRUGXM1","Drug X metabolite M1 concentration","PLASMA",0.079959,"ng/mL",0.5,24,24.03,192.03,"h","Test",2,"RT",100,"mg","Y",""
"NCAA-001","NCAA-001-003",3,"DRUGXM1","Drug X metabolite M1 concentration","PLASMA",0,"ng/mL",0.5,0,-0.14,-0.14,"h","Test",1,"TR",100,"mg","Y",""
"NCAA-001","NCAA-001-003",3,"DRUGXM1","Drug X metabolite M1 concentration","PLASMA",1.4789,"ng/mL",0.5,0.5,0.56,0.56,"h","Test",1,"TR",100,"mg","Y",""
"NCAA-001","NCAA-001-003",3,"DRUGXM1","Drug X metabolite M1 concentration","PLASMA",2.0722,"ng/mL",0.5,1,1.06,1.06,"h","Test",1,"TR",100,"mg","Y",""
"NCAA-001","NCAA-001-003",3,"DRUGXM1","Drug X metabolite M1 concentration","PLASMA",2.3113,"ng/mL",0.5,1.5,1.58,1.58,"h","Test",1,"TR",100,"mg","Y",""
"NCAA-001","NCAA-001-003",3,"DRUGXM1","Drug X metabolite M1 concentration","PLASMA",2.3517,"ng/mL",0.5,2,2.03,2.03,"h","Test",1,"TR",100,"mg","Y",""
"NCAA-001","NCAA-001-003",3,"DRUGXM1","Drug X metabolite M1 concentration","PLASMA",2.2058,"ng/mL",0.5,3,3.01,3.01,"h","Test",1,"TR",100,"mg","Y",""
"NCAA-001","NCAA-001-003",3,"DRUGXM1","Drug X metabolite M1 concentration","PLASMA",1.948,"ng/mL",0.5,4,4.03,4.03,"h","Test",1,"TR",100,"mg","Y",""
"NCAA-001","NCAA-001-003",3,"DRUGXM1","Drug X metabolite M1 concentration","PLASMA",1.464,"ng/mL",0.5,6,6.02,6.02,"h","Test",1,"TR",100,"mg","Y",""
"NCAA-001","NCAA-001-003",3,"DRUGXM1","Drug X metabolite M1 concentration","PLASMA",1.0798,"ng/mL",0.5,8,8.06,8.06,"h","Test",1,"TR",100,"mg","Y",""
"NCAA-001","NCAA-001-003",3,"DRUGXM1","Drug X metabolite M1 concentration","PLASMA",0.59271,"ng/mL",0.5,12,12.06,12.06,"h","Test",1,"TR",100,"mg","Y",""
"NCAA-001","NCAA-001-003",3,"DRUGXM1","Drug X metabolite M1 concentration","PLASMA",0.32529,"ng/mL",0.5,16,16.06,16.06,"h","Test",1,"TR",100,"mg","Y",""
"NCAA-001","NCAA-001-003",3,"DRUGXM1","Drug X metabolite M1 concentration","PLASMA",0.098415,"ng/mL",0.5,24,24.03,24.03,"h","Test",1,"TR",100,"mg","Y",""
"NCAA-001","NCAA-001-003",3,"DRUGXM1","Drug X metabolite M1 concentration","PLASMA",0,"ng/mL",0.5,0,-0.21,167.79,"h","Reference",2,"TR",100,"mg","Y",""
"NCAA-001","NCAA-001-003",3,"DRUGXM1","Drug X metabolite M1 concentration","PLASMA",1.3744,"ng/mL",0.5,0.5,0.54,168.54,"h","Reference",2,"TR",100,"mg","Y",""
"NCAA-001","NCAA-001-003",3,"DRUGXM1","Drug X metabolite M1 concentration","PLASMA",1.9348,"ng/mL",0.5,1,1.01,169.01,"h","Reference",2,"TR",100,"mg","Y",""
"NCAA-001","NCAA-001-003",3,"DRUGXM1","Drug X metabolite M1 concentration","PLASMA",2.1885,"ng/mL",0.5,1.5,1.53,169.53,"h","Reference",2,"TR",100,"mg","Y",""
"NCAA-001","NCAA-001-003",3,"DRUGXM1","Drug X metabolite M1 concentration","PLASMA",2.238,"ng/mL",0.5,2,2.05,170.05,"h","Reference",2,"TR",100,"mg","Y",""
"NCAA-001","NCAA-001-003",3,"DRUGXM1","Drug X metabolite M1 concentration","PLASMA",2.0996,"ng/mL",0.5,3,3.01,171.01,"h","Reference",2,"TR",100,"mg","Y",""
"NCAA-001","NCAA-001-003",3,"DRUGXM1","Drug X metabolite M1 concentration","PLASMA",1.8417,"ng/mL",0.5,4,4.08,172.08,"h","Reference",2,"TR",100,"mg","Y",""
"NCAA-001","NCAA-001-003",3,"DRUGXM1","Drug X metabolite M1 concentration","PLASMA",1.3873,"ng/mL",0.5,6,6.05,174.05,"h","Reference",2,"TR",100,"mg","Y",""
"NCAA-001","NCAA-001-003",3,"DRUGXM1","Drug X metabolite M1 concentration","PLASMA",1.0355,"ng/mL",0.5,8,8.01,176.01,"h","Reference",2,"TR",100,"mg","Y",""
"NCAA-001","NCAA-001-003",3,"DRUGXM1","Drug X metabolite M1 concentration","PLASMA",0.56754,"ng/mL",0.5,12,12.02,180.02,"h","Reference",2,"TR",100,"mg","Y",""
"NCAA-001","NCAA-001-003",3,"DRUGXM1","Drug X metabolite M1 concentration","PLASMA",0.31101,"ng/mL",0.5,16,16.03,184.03,"h","Reference",2,"TR",100,"mg","Y",""
"NCAA-001","NCAA-001-003",3,"DRUGXM1","Drug X metabolite M1 concentration","PLASMA",0.093114,"ng/mL",0.5,24,24.07,192.07,"h","Reference",2,"TR",100,"mg","Y",""
"NCAA-001","NCAA-001-004",4,"DRUGXM1","Drug X metabolite M1 concentration","PLASMA",0,"ng/mL",0.5,0,-0.05,-0.05,"h","Reference",1,"RT",100,"mg","Y",""
"NCAA-001","NCAA-001-004",4,"DRUGXM1","Drug X metabolite M1 concentration","PLASMA",0.94362,"ng/mL",0.5,0.5,0.57,0.57,"h","Reference",1,"RT",100,"mg","Y",""
"NCAA-001","NCAA-001-004",4,"DRUGXM1","Drug X metabolite M1 concentration","PLASMA",1.2925,"ng/mL",0.5,1,1.03,1.03,"h","Reference",1,"RT",100,"mg","Y",""
"NCAA-001","NCAA-001-004",4,"DRUGXM1","Drug X metabolite M1 concentration","PLASMA",1.452,"ng/mL",0.5,1.5,1.54,1.54,"h","Reference",1,"RT",100,"mg","Y",""
"NCAA-001","NCAA-001-004",4,"DRUGXM1","Drug X metabolite M1 concentration","PLASMA",1.4834,"ng/mL",0.5,2,2.03,2.03,"h","Reference",1,"RT",100,"mg","Y",""
"NCAA-001","NCAA-001-004",4,"DRUGXM1","Drug X metabolite M1 concentration","PLASMA",1.3929,"ng/mL",0.5,3,3,3,"h","Reference",1,"RT",100,"mg","Y",""
"NCAA-001","NCAA-001-004",4,"DRUGXM1","Drug X metabolite M1 concentration","PLASMA",1.2304,"ng/mL",0.5,4,4.02,4.02,"h","Reference",1,"RT",100,"mg","Y",""
"NCAA-001","NCAA-001-004",4,"DRUGXM1","Drug X metabolite M1 concentration","PLASMA",0.92484,"ng/mL",0.5,6,6.01,6.01,"h","Reference",1,"RT",100,"mg","Y",""
"NCAA-001","NCAA-001-004",4,"DRUGXM1","Drug X metabolite M1 concentration","PLASMA",0.68112,"ng/mL",0.5,8,8.06,8.06,"h","Reference",1,"RT",100,"mg","Y",""
"NCAA-001","NCAA-001-004",4,"DRUGXM1","Drug X metabolite M1 concentration","PLASMA",0.37668,"ng/mL",0.5,12,12.01,12.01,"h","Reference",1,"RT",100,"mg","Y",""
"NCAA-001","NCAA-001-004",4,"DRUGXM1","Drug X metabolite M1 concentration","PLASMA",0.20642,"ng/mL",0.5,16,16.02,16.02,"h","Reference",1,"RT",100,"mg","Y",""
"NCAA-001","NCAA-001-004",4,"DRUGXM1","Drug X metabolite M1 concentration","PLASMA",0.06171,"ng/mL",0.5,24,24.07,24.07,"h","Reference",1,"RT",100,"mg","Y",""
"NCAA-001","NCAA-001-004",4,"DRUGXM1","Drug X metabolite M1 concentration","PLASMA",0,"ng/mL",0.5,0,-0.21,167.79,"h","Test",2,"RT",100,"mg","Y",""
"NCAA-001","NCAA-001-004",4,"DRUGXM1","Drug X metabolite M1 concentration","PLASMA",0.72645,"ng/mL",0.5,0.5,0.5,168.5,"h","Test",2,"RT",100,"mg","Y",""
"NCAA-001","NCAA-001-004",4,"DRUGXM1","Drug X metabolite M1 concentration","PLASMA",1.077,"ng/mL",0.5,1,1.01,169.01,"h","Test",2,"RT",100,"mg","Y",""
"NCAA-001","NCAA-001-004",4,"DRUGXM1","Drug X metabolite M1 concentration","PLASMA",1.2183,"ng/mL",0.5,1.5,1.53,169.53,"h","Test",2,"RT",100,"mg","Y",""
"NCAA-001","NCAA-001-004",4,"DRUGXM1","Drug X metabolite M1 concentration","PLASMA",1.2462,"ng/mL",0.5,2,2.01,170.01,"h","Test",2,"RT",100,"mg","Y",""
"NCAA-001","NCAA-001-004",4,"DRUGXM1","Drug X metabolite M1 concentration","PLASMA",1.1664,"ng/mL",0.5,3,3.03,171.03,"h","Test",2,"RT",100,"mg","Y",""
"NCAA-001","NCAA-001-004",4,"DRUGXM1","Drug X metabolite M1 concentration","PLASMA",1.0336,"ng/mL",0.5,4,4.02,172.02,"h","Test",2,"RT",100,"mg","Y",""
"NCAA-001","NCAA-001-004",4,"DRUGXM1","Drug X metabolite M1 concentration","PLASMA",0.77799,"ng/mL",0.5,6,6,174,"h","Test",2,"RT",100,"mg","Y",""
"NCAA-001","NCAA-001-004",4,"DRUGXM1","Drug X metabolite M1 concentration","PLASMA",0.57555,"ng/mL",0.5,8,8.02,176.02,"h","Test",2,"RT",100,"mg","Y",""
"NCAA-001","NCAA-001-004",4,"DRUGXM1","Drug X metabolite M1 concentration","PLASMA",0.31689,"ng/mL",0.5,12,12,180,"h","Test",2,"RT",100,"mg","Y",""
"NCAA-001","NCAA-001-004",4,"DRUGXM1","Drug X metabolite M1 concentration","PLASMA",0.17391,"ng/mL",0.5,16,16,184,"h","Test",2,"RT",100,"mg","Y",""
"NCAA-001","NCAA-001-004",4,"DRUGXM1","Drug X metabolite M1 concentration","PLASMA",0.052383,"ng/mL",0.5,24,24,192,"h","Test",2,"RT",100,"mg","Y",""
"NCAA-001","NCAA-001-005",5,"DRUGXM1","Drug X metabolite M1 concentration","PLASMA",0,"ng/mL",0.5,0,-0.17,-0.17,"h","Test",1,"TR",100,"mg","Y",""
"NCAA-001","NCAA-001-005",5,"DRUGXM1","Drug X metabolite M1 concentration","PLASMA",1.5438,"ng/mL",0.5,0.5,0.56,0.56,"h","Test",1,"TR",100,"mg","Y",""
"NCAA-001","NCAA-001-005",5,"DRUGXM1","Drug X metabolite M1 concentration","PLASMA",2.1305,"ng/mL",0.5,1,1.02,1.02,"h","Test",1,"TR",100,"mg","Y",""
"NCAA-001","NCAA-001-005",5,"DRUGXM1","Drug X metabolite M1 concentration","PLASMA",2.4054,"ng/mL",0.5,1.5,1.55,1.55,"h","Test",1,"TR",100,"mg","Y",""
"NCAA-001","NCAA-001-005",5,"DRUGXM1","Drug X metabolite M1 concentration","PLASMA",2.4549,"ng/mL",0.5,2,2.03,2.03,"h","Test",1,"TR",100,"mg","Y",""
"NCAA-001","NCAA-001-005",5,"DRUGXM1","Drug X metabolite M1 concentration","PLASMA",2.3003,"ng/mL",0.5,3,3.02,3.02,"h","Test",1,"TR",100,"mg","Y",""
"NCAA-001","NCAA-001-005",5,"DRUGXM1","Drug X metabolite M1 concentration","PLASMA",2.0417,"ng/mL",0.5,4,4,4,"h","Test",1,"TR",100,"mg","Y",""
"NCAA-001","NCAA-001-005",5,"DRUGXM1","Drug X metabolite M1 concentration","PLASMA",1.5192,"ng/mL",0.5,6,6.06,6.06,"h","Test",1,"TR",100,"mg","Y",""
"NCAA-001","NCAA-001-005",5,"DRUGXM1","Drug X metabolite M1 concentration","PLASMA",1.1288,"ng/mL",0.5,8,8.05,8.05,"h","Test",1,"TR",100,"mg","Y",""
"NCAA-001","NCAA-001-005",5,"DRUGXM1","Drug X metabolite M1 concentration","PLASMA",0.62151,"ng/mL",0.5,12,12.03,12.03,"h","Test",1,"TR",100,"mg","Y",""
"NCAA-001","NCAA-001-005",5,"DRUGXM1","Drug X metabolite M1 concentration","PLASMA",0.34263,"ng/mL",0.5,16,16,16,"h","Test",1,"TR",100,"mg","Y",""
"NCAA-001","NCAA-001-005",5,"DRUGXM1","Drug X metabolite M1 concentration","PLASMA",0.10304,"ng/mL",0.5,24,24.01,24.01,"h","Test",1,"TR",100,"mg","Y",""
"NCAA-001","NCAA-001-005",5,"DRUGXM1","Drug X metabolite M1 concentration","PLASMA",0,"ng/mL",0.5,0,-0.16,167.84,"h","Reference",2,"TR",100,"mg","Y",""
"NCAA-001","NCAA-001-005",5,"DRUGXM1","Drug X metabolite M1 concentration","PLASMA",1.4889,"ng/mL",0.5,0.5,0.51,168.51,"h","Reference",2,"TR",100,"mg","Y",""
"NCAA-001","NCAA-001-005",5,"DRUGXM1","Drug X metabolite M1 concentration","PLASMA",2.1952,"ng/mL",0.5,1,1.03,169.03,"h","Reference",2,"TR",100,"mg","Y",""
"NCAA-001","NCAA-001-005",5,"DRUGXM1","Drug X metabolite M1 concentration","PLASMA",2.4633,"ng/mL",0.5,1.5,1.53,169.53,"h","Reference",2,"TR",100,"mg","Y",""
"NCAA-001","NCAA-001-005",5,"DRUGXM1","Drug X metabolite M1 concentration","PLASMA",2.5199,"ng/mL",0.5,2,2.01,170.01,"h","Reference",2,"TR",100,"mg","Y",""
"NCAA-001","NCAA-001-005",5,"DRUGXM1","Drug X metabolite M1 concentration","PLASMA",2.3658,"ng/mL",0.5,3,3,171,"h","Reference",2,"TR",100,"mg","Y",""
"NCAA-001","NCAA-001-005",5,"DRUGXM1","Drug X metabolite M1 concentration","PLASMA",2.0955,"ng/mL",0.5,4,4,172,"h","Reference",2,"TR",100,"mg","Y",""
"NCAA-001","NCAA-001-005",5,"DRUGXM1","Drug X metabolite M1 concentration","PLASMA",1.5615,"ng/mL",0.5,6,6.05,174.05,"h","Reference",2,"TR",100,"mg","Y",""
"NCAA-001","NCAA-001-005",5,"DRUGXM1","Drug X metabolite M1 concentration","PLASMA",1.162,"ng/mL",0.5,8,8.03,176.03,"h","Reference",2,"TR",100,"mg","Y",""
"NCAA-001","NCAA-001-005",5,"DRUGXM1","Drug X metabolite M1 concentration","PLASMA",0.63405,"ng/mL",0.5,12,12.07,180.07,"h","Reference",2,"TR",100,"mg","Y",""
"NCAA-001","NCAA-001-005",5,"DRUGXM1","Drug X metabolite M1 concentration","PLASMA",0.34851,"ng/mL",0.5,16,16.06,184.06,"h","Reference",2,"TR",100,"mg","Y",""
"NCAA-001","NCAA-001-005",5,"DRUGXM1","Drug X metabolite M1 concentration","PLASMA",0.1056,"ng/mL",0.5,24,24.02,192.02,"h","Reference",2,"TR",100,"mg","Y",""
"NCAA-001","NCAA-001-006",6,"DRUGXM1","Drug X metabolite M1 concentration","PLASMA",0,"ng/mL",0.5,0,-0.24,-0.24,"h","Reference",1,"RT",100,"mg","Y",""
"NCAA-001","NCAA-001-006",6,"DRUGXM1","Drug X metabolite M1 concentration","PLASMA",1.2058,"ng/mL",0.5,0.5,0.53,0.53,"h","Reference",1,"RT",100,"mg","Y",""
"NCAA-001","NCAA-001-006",6,"DRUGXM1","Drug X metabolite M1 concentration","PLASMA",1.7583,"ng/mL",0.5,1,1.07,1.07,"h","Reference",1,"RT",100,"mg","Y",""
"NCAA-001","NCAA-001-006",6,"DRUGXM1","Drug X metabolite M1 concentration","PLASMA",1.9542,"ng/mL",0.5,1.5,1.58,1.58,"h","Reference",1,"RT",100,"mg","Y",""
"NCAA-001","NCAA-001-006",6,"DRUGXM1","Drug X metabolite M1 concentration","PLASMA",1.9886,"ng/mL",0.5,2,2.01,2.01,"h","Reference",1,"RT",100,"mg","Y",""
"NCAA-001","NCAA-001-006",6,"DRUGXM1","Drug X metabolite M1 concentration","PLASMA",1.8553,"ng/mL",0.5,3,3.06,3.06,"h","Reference",1,"RT",100,"mg","Y",""
"NCAA-001","NCAA-001-006",6,"DRUGXM1","Drug X metabolite M1 concentration","PLASMA",1.6381,"ng/mL",0.5,4,4.07,4.07,"h","Reference",1,"RT",100,"mg","Y",""
"NCAA-001","NCAA-001-006",6,"DRUGXM1","Drug X metabolite M1 concentration","PLASMA",1.2286,"ng/mL",0.5,6,6.07,6.07,"h","Reference",1,"RT",100,"mg","Y",""
"NCAA-001","NCAA-001-006",6,"DRUGXM1","Drug X metabolite M1 concentration","PLASMA",0.91428,"ng/mL",0.5,8,8.05,8.05,"h","Reference",1,"RT",100,"mg","Y",""
"NCAA-001","NCAA-001-006",6,"DRUGXM1","Drug X metabolite M1 concentration","PLASMA",0.50262,"ng/mL",0.5,12,12.04,12.04,"h","Reference",1,"RT",100,"mg","Y",""
"NCAA-001","NCAA-001-006",6,"DRUGXM1","Drug X metabolite M1 concentration","PLASMA",0.27543,"ng/mL",0.5,16,16.05,16.05,"h","Reference",1,"RT",100,"mg","Y",""
"NCAA-001","NCAA-001-006",6,"DRUGXM1","Drug X metabolite M1 concentration","PLASMA",0.082836,"ng/mL",0.5,24,24.06,24.06,"h","Reference",1,"RT",100,"mg","Y",""
"NCAA-001","NCAA-001-006",6,"DRUGXM1","Drug X metabolite M1 concentration","PLASMA",0,"ng/mL",0.5,0,-0.22,167.78,"h","Test",2,"RT",100,"mg","Y",""
"NCAA-001","NCAA-001-006",6,"DRUGXM1","Drug X metabolite M1 concentration","PLASMA",1.0529,"ng/mL",0.5,0.5,0.53,168.53,"h","Test",2,"RT",100,"mg","Y",""
"NCAA-001","NCAA-001-006",6,"DRUGXM1","Drug X metabolite M1 concentration","PLASMA",1.5298,"ng/mL",0.5,1,1.06,169.06,"h","Test",2,"RT",100,"mg","Y",""
"NCAA-001","NCAA-001-006",6,"DRUGXM1","Drug X metabolite M1 concentration","PLASMA",1.6935,"ng/mL",0.5,1.5,1.51,169.51,"h","Test",2,"RT",100,"mg","Y",""
"NCAA-001","NCAA-001-006",6,"DRUGXM1","Drug X metabolite M1 concentration","PLASMA",1.7358,"ng/mL",0.5,2,2.05,170.05,"h","Test",2,"RT",100,"mg","Y",""
"NCAA-001","NCAA-001-006",6,"DRUGXM1","Drug X metabolite M1 concentration","PLASMA",1.62,"ng/mL",0.5,3,3.06,171.06,"h","Test",2,"RT",100,"mg","Y",""
"NCAA-001","NCAA-001-006",6,"DRUGXM1","Drug X metabolite M1 concentration","PLASMA",1.4401,"ng/mL",0.5,4,4.02,172.02,"h","Test",2,"RT",100,"mg","Y",""
"NCAA-001","NCAA-001-006",6,"DRUGXM1","Drug X metabolite M1 concentration","PLASMA",1.0792,"ng/mL",0.5,6,6.03,174.03,"h","Test",2,"RT",100,"mg","Y",""
"NCAA-001","NCAA-001-006",6,"DRUGXM1","Drug X metabolite M1 concentration","PLASMA",0.79956,"ng/mL",0.5,8,8.04,176.04,"h","Test",2,"RT",100,"mg","Y",""
"NCAA-001","NCAA-001-006",6,"DRUGXM1","Drug X metabolite M1 concentration","PLASMA",0.43692,"ng/mL",0.5,12,12.07,180.07,"h","Test",2,"RT",100,"mg","Y",""
"NCAA-001","NCAA-001-006",6,"DRUGXM1","Drug X metabolite M1 concentration","PLASMA",0.24015,"ng/mL",0.5,16,16.06,184.06,"h","Test",2,"RT",100,"mg","Y",""
"NCAA-001","NCAA-001-006",6,"DRUGXM1","Drug X metabolite M1 concentration","PLASMA",0.072549,"ng/mL",0.5,24,24.04,192.04,"h","Test",2,"RT",100,"mg","Y",""
"NCAA-001","NCAA-001-007",7,"DRUGXM1","Drug X metabolite M1 concentration","PLASMA",0,"ng/mL",0.5,0,-0.09,-0.09,"h","Test",1,"TR",100,"mg","Y",""
"NCAA-001","NCAA-001-007",7,"DRUGXM1","Drug X metabolite M1 concentration","PLASMA",1.3554,"ng/mL",0.5,0.5,0.55,0.55,"h","Test",1,"TR",100,"mg","Y",""
"NCAA-001","NCAA-001-007",7,"DRUGXM1","Drug X metabolite M1 concentration","PLASMA",1.9146,"ng/mL",0.5,1,1.05,1.05,"h","Test",1,"TR",100,"mg","Y",""
"NCAA-001","NCAA-001-007",7,"DRUGXM1","Drug X metabolite M1 concentration","PLASMA",2.1297,"ng/mL",0.5,1.5,1.52,1.52,"h","Test",1,"TR",100,"mg","Y",""
"NCAA-001","NCAA-001-007",7,"DRUGXM1","Drug X metabolite M1 concentration","PLASMA",2.181,"ng/mL",0.5,2,2.02,2.02,"h","Test",1,"TR",100,"mg","Y",""
"NCAA-001","NCAA-001-007",7,"DRUGXM1","Drug X metabolite M1 concentration","PLASMA",2.0414,"ng/mL",0.5,3,3.03,3.03,"h","Test",1,"TR",100,"mg","Y",""
"NCAA-001","NCAA-001-007",7,"DRUGXM1","Drug X metabolite M1 concentration","PLASMA",1.7968,"ng/mL",0.5,4,4.07,4.07,"h","Test",1,"TR",100,"mg","Y",""
"NCAA-001","NCAA-001-007",7,"DRUGXM1","Drug X metabolite M1 concentration","PLASMA",1.3576,"ng/mL",0.5,6,6.02,6.02,"h","Test",1,"TR",100,"mg","Y",""
"NCAA-001","NCAA-001-007",7,"DRUGXM1","Drug X metabolite M1 concentration","PLASMA",1.0043,"ng/mL",0.5,8,8.04,8.04,"h","Test",1,"TR",100,"mg","Y",""
"NCAA-001","NCAA-001-007",7,"DRUGXM1","Drug X metabolite M1 concentration","PLASMA",0.55296,"ng/mL",0.5,12,12.02,12.02,"h","Test",1,"TR",100,"mg","Y",""
"NCAA-001","NCAA-001-007",7,"DRUGXM1","Drug X metabolite M1 concentration","PLASMA",0.30255,"ng/mL",0.5,16,16.04,16.04,"h","Test",1,"TR",100,"mg","Y",""
"NCAA-001","NCAA-001-007",7,"DRUGXM1","Drug X metabolite M1 concentration","PLASMA",0.09072,"ng/mL",0.5,24,24.07,24.07,"h","Test",1,"TR",100,"mg","Y",""
"NCAA-001","NCAA-001-007",7,"DRUGXM1","Drug X metabolite M1 concentration","PLASMA",0,"ng/mL",0.5,0,-0.17,167.83,"h","Reference",2,"TR",100,"mg","Y",""
"NCAA-001","NCAA-001-007",7,"DRUGXM1","Drug X metabolite M1 concentration","PLASMA",1.5321,"ng/mL",0.5,0.5,0.56,168.56,"h","Reference",2,"TR",100,"mg","Y",""
"NCAA-001","NCAA-001-007",7,"DRUGXM1","Drug X metabolite M1 concentration","PLASMA",2.162,"ng/mL",0.5,1,1.08,169.08,"h","Reference",2,"TR",100,"mg","Y",""
"NCAA-001","NCAA-001-007",7,"DRUGXM1","Drug X metabolite M1 concentration","PLASMA",2.3944,"ng/mL",0.5,1.5,1.58,169.58,"h","Reference",2,"TR",100,"mg","Y",""
"NCAA-001","NCAA-001-007",7,"DRUGXM1","Drug X metabolite M1 concentration","PLASMA",2.4355,"ng/mL",0.5,2,2.06,170.06,"h","Reference",2,"TR",100,"mg","Y",""
"NCAA-001","NCAA-001-007",7,"DRUGXM1","Drug X metabolite M1 concentration","PLASMA",2.2732,"ng/mL",0.5,3,3.06,171.06,"h","Reference",2,"TR",100,"mg","Y",""
"NCAA-001","NCAA-001-007",7,"DRUGXM1","Drug X metabolite M1 concentration","PLASMA",2.0099,"ng/mL",0.5,4,4.06,172.06,"h","Reference",2,"TR",100,"mg","Y",""
"NCAA-001","NCAA-001-007",7,"DRUGXM1","Drug X metabolite M1 concentration","PLASMA",1.5076,"ng/mL",0.5,6,6.06,174.06,"h","Reference",2,"TR",100,"mg","Y",""
"NCAA-001","NCAA-001-007",7,"DRUGXM1","Drug X metabolite M1 concentration","PLASMA",1.1287,"ng/mL",0.5,8,8,176,"h","Reference",2,"TR",100,"mg","Y",""
"NCAA-001","NCAA-001-007",7,"DRUGXM1","Drug X metabolite M1 concentration","PLASMA",0.61773,"ng/mL",0.5,12,12.02,180.02,"h","Reference",2,"TR",100,"mg","Y",""
"NCAA-001","NCAA-001-007",7,"DRUGXM1","Drug X metabolite M1 concentration","PLASMA",0.33597,"ng/mL",0.5,16,16.08,184.08,"h","Reference",2,"TR",100,"mg","Y",""
"NCAA-001","NCAA-001-007",7,"DRUGXM1","Drug X metabolite M1 concentration","PLASMA",0.10135,"ng/mL",0.5,24,24.07,192.07,"h","Reference",2,"TR",100,"mg","Y",""
"NCAA-001","NCAA-001-008",8,"DRUGXM1","Drug X metabolite M1 concentration","PLASMA",0,"ng/mL",0.5,0,-0.15,-0.15,"h","Reference",1,"RT",100,"mg","Y",""
"NCAA-001","NCAA-001-008",8,"DRUGXM1","Drug X metabolite M1 concentration","PLASMA",1.5774,"ng/mL",0.5,0.5,0.51,0.51,"h","Reference",1,"RT",100,"mg","Y",""
"NCAA-001","NCAA-001-008",8,"DRUGXM1","Drug X metabolite M1 concentration","PLASMA",2.3435,"ng/mL",0.5,1,1.05,1.05,"h","Reference",1,"RT",100,"mg","Y",""
"NCAA-001","NCAA-001-008",8,"DRUGXM1","Drug X metabolite M1 concentration","PLASMA",2.6068,"ng/mL",0.5,1.5,1.52,1.52,"h","Reference",1,"RT",100,"mg","Y",""
"NCAA-001","NCAA-001-008",8,"DRUGXM1","Drug X metabolite M1 concentration","PLASMA",2.6694,"ng/mL",0.5,2,2.03,2.03,"h","Reference",1,"RT",100,"mg","Y",""
"NCAA-001","NCAA-001-008",8,"DRUGXM1","Drug X metabolite M1 concentration","PLASMA",2.4986,"ng/mL",0.5,3,3.03,3.03,"h","Reference",1,"RT",100,"mg","Y",""
"NCAA-001","NCAA-001-008",8,"DRUGXM1","Drug X metabolite M1 concentration","PLASMA",2.2022,"ng/mL",0.5,4,4.06,4.06,"h","Reference",1,"RT",100,"mg","Y",""
"NCAA-001","NCAA-001-008",8,"DRUGXM1","Drug X metabolite M1 concentration","PLASMA",1.6568,"ng/mL",0.5,6,6.04,6.04,"h","Reference",1,"RT",100,"mg","Y",""
"NCAA-001","NCAA-001-008",8,"DRUGXM1","Drug X metabolite M1 concentration","PLASMA",1.2238,"ng/mL",0.5,8,8.07,8.07,"h","Reference",1,"RT",100,"mg","Y",""
"NCAA-001","NCAA-001-008",8,"DRUGXM1","Drug X metabolite M1 concentration","PLASMA",0.67077,"ng/mL",0.5,12,12.08,12.08,"h","Reference",1,"RT",100,"mg","Y",""
"NCAA-001","NCAA-001-008",8,"DRUGXM1","Drug X metabolite M1 concentration","PLASMA",0.36978,"ng/mL",0.5,16,16.05,16.05,"h","Reference",1,"RT",100,"mg","Y",""
"NCAA-001","NCAA-001-008",8,"DRUGXM1","Drug X metabolite M1 concentration","PLASMA",0.11205,"ng/mL",0.5,24,24.01,24.01,"h","Reference",1,"RT",100,"mg","Y",""
"NCAA-001","NCAA-001-008",8,"DRUGXM1","Drug X metabolite M1 concentration","PLASMA",0,"ng/mL",0.5,0,-0.08,167.92,"h","Test",2,"RT",100,"mg","Y",""
"NCAA-001","NCAA-001-008",8,"DRUGXM1","Drug X metabolite M1 concentration","PLASMA",1.1204,"ng/mL",0.5,0.5,0.56,168.56,"h","Test",2,"RT",100,"mg","Y",""
"NCAA-001","NCAA-001-008",8,"DRUGXM1","Drug X metabolite M1 concentration","PLASMA",1.5755,"ng/mL",0.5,1,1.07,169.07,"h","Test",2,"RT",100,"mg","Y",""
"NCAA-001","NCAA-001-008",8,"DRUGXM1","Drug X metabolite M1 concentration","PLASMA",1.7419,"ng/mL",0.5,1.5,1.53,169.53,"h","Test",2,"RT",100,"mg","Y",""
"NCAA-001","NCAA-001-008",8,"DRUGXM1","Drug X metabolite M1 concentration","PLASMA",1.781,"ng/mL",0.5,2,2.06,170.06,"h","Test",2,"RT",100,"mg","Y",""
"NCAA-001","NCAA-001-008",8,"DRUGXM1","Drug X metabolite M1 concentration","PLASMA",1.6694,"ng/mL",0.5,3,3.02,171.02,"h","Test",2,"RT",100,"mg","Y",""
"NCAA-001","NCAA-001-008",8,"DRUGXM1","Drug X metabolite M1 concentration","PLASMA",1.4718,"ng/mL",0.5,4,4.05,172.05,"h","Test",2,"RT",100,"mg","Y",""
"NCAA-001","NCAA-001-008",8,"DRUGXM1","Drug X metabolite M1 concentration","PLASMA",1.0993,"ng/mL",0.5,6,6.08,174.08,"h","Test",2,"RT",100,"mg","Y",""
"NCAA-001","NCAA-001-008",8,"DRUGXM1","Drug X metabolite M1 concentration","PLASMA",0.82539,"ng/mL",0.5,8,8,176,"h","Test",2,"RT",100,"mg","Y",""
"NCAA-001","NCAA-001-008",8,"DRUGXM1","Drug X metabolite M1 concentration","PLASMA",0.44769,"ng/mL",0.5,12,12.08,180.08,"h","Test",2,"RT",100,"mg","Y",""
"NCAA-001","NCAA-001-008",8,"DRUGXM1","Drug X metabolite M1 concentration","PLASMA",0.24792,"ng/mL",0.5,16,16.02,184.02,"h","Test",2,"RT",100,"mg","Y",""
"NCAA-001","NCAA-001-008",8,"DRUGXM1","Drug X metabolite M1 concentration","PLASMA",0.074448,"ng/mL",0.5,24,24.04,192.04,"h","Test",2,"RT",100,"mg","Y",""
"NCAA-001","NCAA-001-009",9,"DRUGXM1","Drug X metabolite M1 concentration","PLASMA",0,"ng/mL",0.5,0,-0.2,-0.2,"h","Test",1,"TR",100,"mg","Y",""
"NCAA-001","NCAA-001-009",9,"DRUGXM1","Drug X metabolite M1 concentration","PLASMA",1.6001,"ng/mL",0.5,0.5,0.56,0.56,"h","Test",1,"TR",100,"mg","Y",""
"NCAA-001","NCAA-001-009",9,"DRUGXM1","Drug X metabolite M1 concentration","PLASMA",2.2082,"ng/mL",0.5,1,1.02,1.02,"h","Test",1,"TR",100,"mg","Y",""
"NCAA-001","NCAA-001-009",9,"DRUGXM1","Drug X metabolite M1 concentration","PLASMA",2.4983,"ng/mL",0.5,1.5,1.57,1.57,"h","Test",1,"TR",100,"mg","Y",""
"NCAA-001","NCAA-001-009",9,"DRUGXM1","Drug X metabolite M1 concentration","PLASMA",2.5444,"ng/mL",0.5,2,2.03,2.03,"h","Test",1,"TR",100,"mg","Y",""
"NCAA-001","NCAA-001-009",9,"DRUGXM1","Drug X metabolite M1 concentration","PLASMA",2.3767,"ng/mL",0.5,3,3.05,3.05,"h","Test",1,"TR",100,"mg","Y",""
"NCAA-001","NCAA-001-009",9,"DRUGXM1","Drug X metabolite M1 concentration","PLASMA",2.1048,"ng/mL",0.5,4,4.04,4.04,"h","Test",1,"TR",100,"mg","Y",""
"NCAA-001","NCAA-001-009",9,"DRUGXM1","Drug X metabolite M1 concentration","PLASMA",1.5793,"ng/mL",0.5,6,6.04,6.04,"h","Test",1,"TR",100,"mg","Y",""
"NCAA-001","NCAA-001-009",9,"DRUGXM1","Drug X metabolite M1 concentration","PLASMA",1.1717,"ng/mL",0.5,8,8.04,8.04,"h","Test",1,"TR",100,"mg","Y",""
"NCAA-001","NCAA-001-009",9,"DRUGXM1","Drug X metabolite M1 concentration","PLASMA",0.64032,"ng/mL",0.5,12,12.07,12.07,"h","Test",1,"TR",100,"mg","Y",""
"NCAA-001","NCAA-001-009",9,"DRUGXM1","Drug X metabolite M1 concentration","PLASMA",0.35511,"ng/mL",0.5,16,16,16,"h","Test",1,"TR",100,"mg","Y",""
"NCAA-001","NCAA-001-009",9,"DRUGXM1","Drug X metabolite M1 concentration","PLASMA",0.106,"ng/mL",0.5,24,24.06,24.06,"h","Test",1,"TR",100,"mg","Y",""
"NCAA-001","NCAA-001-009",9,"DRUGXM1","Drug X metabolite M1 concentration","PLASMA",0,"ng/mL",0.5,0,-0.09,167.91,"h","Reference",2,"TR",100,"mg","Y",""
"NCAA-001","NCAA-001-009",9,"DRUGXM1","Drug X metabolite M1 concentration","PLASMA",1.5822,"ng/mL",0.5,0.5,0.58,168.58,"h","Reference",2,"TR",100,"mg","Y",""
"NCAA-001","NCAA-001-009",9,"DRUGXM1","Drug X metabolite M1 concentration","PLASMA",2.1346,"ng/mL",0.5,1,1.02,169.02,"h","Reference",2,"TR",100,"mg","Y",""
"NCAA-001","NCAA-001-009",9,"DRUGXM1","Drug X metabolite M1 concentration","PLASMA",2.4101,"ng/mL",0.5,1.5,1.55,169.55,"h","Reference",2,"TR",100,"mg","Y",""
"NCAA-001","NCAA-001-009",9,"DRUGXM1","Drug X metabolite M1 concentration","PLASMA",2.4595,"ng/mL",0.5,2,2.04,170.04,"h","Reference",2,"TR",100,"mg","Y",""
"NCAA-001","NCAA-001-009",9,"DRUGXM1","Drug X metabolite M1 concentration","PLASMA",2.2952,"ng/mL",0.5,3,3.06,171.06,"h","Reference",2,"TR",100,"mg","Y",""
"NCAA-001","NCAA-001-009",9,"DRUGXM1","Drug X metabolite M1 concentration","PLASMA",2.043,"ng/mL",0.5,4,4.01,172.01,"h","Reference",2,"TR",100,"mg","Y",""
"NCAA-001","NCAA-001-009",9,"DRUGXM1","Drug X metabolite M1 concentration","PLASMA",1.5244,"ng/mL",0.5,6,6.05,174.05,"h","Reference",2,"TR",100,"mg","Y",""
"NCAA-001","NCAA-001-009",9,"DRUGXM1","Drug X metabolite M1 concentration","PLASMA",1.126,"ng/mL",0.5,8,8.08,176.08,"h","Reference",2,"TR",100,"mg","Y",""
"NCAA-001","NCAA-001-009",9,"DRUGXM1","Drug X metabolite M1 concentration","PLASMA",0.62367,"ng/mL",0.5,12,12.02,180.02,"h","Reference",2,"TR",100,"mg","Y",""
"NCAA-001","NCAA-001-009",9,"DRUGXM1","Drug X metabolite M1 concentration","PLASMA",0.34074,"ng/mL",0.5,16,16.05,184.05,"h","Reference",2,"TR",100,"mg","Y",""
"NCAA-001","NCAA-001-009",9,"DRUGXM1","Drug X metabolite M1 concentration","PLASMA",0.10263,"ng/mL",0.5,24,24.05,192.05,"h","Reference",2,"TR",100,"mg","Y",""
"NCAA-001","NCAA-001-010",10,"DRUGXM1","Drug X metabolite M1 concentration","PLASMA",0,"ng/mL",0.5,0,-0.17,-0.17,"h","Reference",1,"RT",100,"mg","Y",""
"NCAA-001","NCAA-001-010",10,"DRUGXM1","Drug X metabolite M1 concentration","PLASMA",1.2217,"ng/mL",0.5,0.5,0.53,0.53,"h","Reference",1,"RT",100,"mg","Y",""
"NCAA-001","NCAA-001-010",10,"DRUGXM1","Drug X metabolite M1 concentration","PLASMA",1.7686,"ng/mL",0.5,1,1.05,1.05,"h","Reference",1,"RT",100,"mg","Y",""
"NCAA-001","NCAA-001-010",10,"DRUGXM1","Drug X metabolite M1 concentration","PLASMA",1.978,"ng/mL",0.5,1.5,1.57,1.57,"h","Reference",1,"RT",100,"mg","Y",""
"NCAA-001","NCAA-001-010",10,"DRUGXM1","Drug X metabolite M1 concentration","PLASMA",2.0148,"ng/mL",0.5,2,2.01,2.01,"h","Reference",1,"RT",100,"mg","Y",""
"NCAA-001","NCAA-001-010",10,"DRUGXM1","Drug X metabolite M1 concentration","PLASMA",1.8817,"ng/mL",0.5,3,3.05,3.05,"h","Reference",1,"RT",100,"mg","Y",""
"NCAA-001","NCAA-001-010",10,"DRUGXM1","Drug X metabolite M1 concentration","PLASMA",1.662,"ng/mL",0.5,4,4.06,4.06,"h","Reference",1,"RT",100,"mg","Y",""
"NCAA-001","NCAA-001-010",10,"DRUGXM1","Drug X metabolite M1 concentration","PLASMA",1.2504,"ng/mL",0.5,6,6.04,6.04,"h","Reference",1,"RT",100,"mg","Y",""
"NCAA-001","NCAA-001-010",10,"DRUGXM1","Drug X metabolite M1 concentration","PLASMA",0.92496,"ng/mL",0.5,8,8.06,8.06,"h","Reference",1,"RT",100,"mg","Y",""
"NCAA-001","NCAA-001-010",10,"DRUGXM1","Drug X metabolite M1 concentration","PLASMA",0.50925,"ng/mL",0.5,12,12.04,12.04,"h","Reference",1,"RT",100,"mg","Y",""
"NCAA-001","NCAA-001-010",10,"DRUGXM1","Drug X metabolite M1 concentration","PLASMA",0.27865,"ng/mL",0.5,16,16.06,16.06,"h","Reference",1,"RT",100,"mg","Y",""
"NCAA-001","NCAA-001-010",10,"DRUGXM1","Drug X metabolite M1 concentration","PLASMA",0.08418,"ng/mL",0.5,24,24.04,24.04,"h","Reference",1,"RT",100,"mg","Y",""
"NCAA-001","NCAA-001-010",10,"DRUGXM1","Drug X metabolite M1 concentration","PLASMA",0,"ng/mL",0.5,0,-0.22,167.78,"h","Test",2,"RT",100,"mg","Y",""
"NCAA-001","NCAA-001-010",10,"DRUGXM1","Drug X metabolite M1 concentration","PLASMA",1.4746,"ng/mL",0.5,0.5,0.54,168.54,"h","Test",2,"RT",100,"mg","Y",""
"NCAA-001","NCAA-001-010",10,"DRUGXM1","Drug X metabolite M1 concentration","PLASMA",2.116,"ng/mL",0.5,1,1.06,169.06,"h","Test",2,"RT",100,"mg","Y",""
"NCAA-001","NCAA-001-010",10,"DRUGXM1","Drug X metabolite M1 concentration","PLASMA",2.3579,"ng/mL",0.5,1.5,1.57,169.57,"h","Test",2,"RT",100,"mg","Y",""
"NCAA-001","NCAA-001-010",10,"DRUGXM1","Drug X metabolite M1 concentration","PLASMA",2.401,"ng/mL",0.5,2,2.05,170.05,"h","Test",2,"RT",100,"mg","Y",""
"NCAA-001","NCAA-001-010",10,"DRUGXM1","Drug X metabolite M1 concentration","PLASMA",2.2526,"ng/mL",0.5,3,3.01,171.01,"h","Test",2,"RT",100,"mg","Y",""
"NCAA-001","NCAA-001-010",10,"DRUGXM1","Drug X metabolite M1 concentration","PLASMA",1.9839,"ng/mL",0.5,4,4.05,172.05,"h","Test",2,"RT",100,"mg","Y",""
"NCAA-001","NCAA-001-010",10,"DRUGXM1","Drug X metabolite M1 concentration","PLASMA",1.495,"ng/mL",0.5,6,6.02,174.02,"h","Test",2,"RT",100,"mg","Y",""
"NCAA-001","NCAA-001-010",10,"DRUGXM1","Drug X metabolite M1 concentration","PLASMA",1.101,"ng/mL",0.5,8,8.07,176.07,"h","Test",2,"RT",100,"mg","Y",""
"NCAA-001","NCAA-001-010",10,"DRUGXM1","Drug X metabolite M1 concentration","PLASMA",0.60615,"ng/mL",0.5,12,12.05,180.05,"h","Test",2,"RT",100,"mg","Y",""
"NCAA-001","NCAA-001-010",10,"DRUGXM1","Drug X metabolite M1 concentration","PLASMA",0.33468,"ng/mL",0.5,16,16.01,184.01,"h","Test",2,"RT",100,"mg","Y",""
"NCAA-001","NCAA-001-010",10,"DRUGXM1","Drug X metabolite M1 concentration","PLASMA",0.1002,"ng/mL",0.5,24,24.05,192.05,"h","Test",2,"RT",100,"mg","Y",""
"NCAA-001","NCAA-001-011",11,"DRUGXM1","Drug X metabolite M1 concentration","PLASMA",0,"ng/mL",0.5,0,-0.17,-0.17,"h","Test",1,"TR",100,"mg","Y",""
"NCAA-001","NCAA-001-011",11,"DRUGXM1","Drug X metabolite M1 concentration","PLASMA",1.0734,"ng/mL",0.5,0.5,0.54,0.54,"h","Test",1,"TR",100,"mg","Y",""
"NCAA-001","NCAA-001-011",11,"DRUGXM1","Drug X metabolite M1 concentration","PLASMA",1.5231,"ng/mL",0.5,1,1.03,1.03,"h","Test",1,"TR",100,"mg","Y",""
"NCAA-001","NCAA-001-011",11,"DRUGXM1","Drug X metabolite M1 concentration","PLASMA",1.7092,"ng/mL",0.5,1.5,1.53,1.53,"h","Test",1,"TR",100,"mg","Y",""
"NCAA-001","NCAA-001-011",11,"DRUGXM1","Drug X metabolite M1 concentration","PLASMA",1.748,"ng/mL",0.5,2,2.04,2.04,"h","Test",1,"TR",100,"mg","Y",""
"NCAA-001","NCAA-001-011",11,"DRUGXM1","Drug X metabolite M1 concentration","PLASMA",1.6347,"ng/mL",0.5,3,3.04,3.04,"h","Test",1,"TR",100,"mg","Y",""
"NCAA-001","NCAA-001-011",11,"DRUGXM1","Drug X metabolite M1 concentration","PLASMA",1.4442,"ng/mL",0.5,4,4.05,4.05,"h","Test",1,"TR",100,"mg","Y",""
"NCAA-001","NCAA-001-011",11,"DRUGXM1","Drug X metabolite M1 concentration","PLASMA",1.0851,"ng/mL",0.5,6,6.04,6.04,"h","Test",1,"TR",100,"mg","Y",""
"NCAA-001","NCAA-001-011",11,"DRUGXM1","Drug X metabolite M1 concentration","PLASMA",0.80871,"ng/mL",0.5,8,8.01,8.01,"h","Test",1,"TR",100,"mg","Y",""
"NCAA-001","NCAA-001-011",11,"DRUGXM1","Drug X metabolite M1 concentration","PLASMA",0.44259,"ng/mL",0.5,12,12.03,12.03,"h","Test",1,"TR",100,"mg","Y",""
"NCAA-001","NCAA-001-011",11,"DRUGXM1","Drug X metabolite M1 concentration","PLASMA",0.24363,"ng/mL",0.5,16,16.01,16.01,"h","Test",1,"TR",100,"mg","Y",""
"NCAA-001","NCAA-001-011",11,"DRUGXM1","Drug X metabolite M1 concentration","PLASMA",0.073161,"ng/mL",0.5,24,24.03,24.03,"h","Test",1,"TR",100,"mg","Y",""
"NCAA-001","NCAA-001-011",11,"DRUGXM1","Drug X metabolite M1 concentration","PLASMA",0,"ng/mL",0.5,0,-0.06,167.94,"h","Reference",2,"TR",100,"mg","Y",""
"NCAA-001","NCAA-001-011",11,"DRUGXM1","Drug X metabolite M1 concentration","PLASMA",1.5199,"ng/mL",0.5,0.5,0.58,168.58,"h","Reference",2,"TR",100,"mg","Y",""
"NCAA-001","NCAA-001-011",11,"DRUGXM1","Drug X metabolite M1 concentration","PLASMA",2.0339,"ng/mL",0.5,1,1,169,"h","Reference",2,"TR",100,"mg","Y",""
"NCAA-001","NCAA-001-011",11,"DRUGXM1","Drug X metabolite M1 concentration","PLASMA",2.3222,"ng/mL",0.5,1.5,1.58,169.58,"h","Reference",2,"TR",100,"mg","Y",""
"NCAA-001","NCAA-001-011",11,"DRUGXM1","Drug X metabolite M1 concentration","PLASMA",2.3623,"ng/mL",0.5,2,2.05,170.05,"h","Reference",2,"TR",100,"mg","Y",""
"NCAA-001","NCAA-001-011",11,"DRUGXM1","Drug X metabolite M1 concentration","PLASMA",2.2163,"ng/mL",0.5,3,3.01,171.01,"h","Reference",2,"TR",100,"mg","Y",""
"NCAA-001","NCAA-001-011",11,"DRUGXM1","Drug X metabolite M1 concentration","PLASMA",1.9493,"ng/mL",0.5,4,4.06,172.06,"h","Reference",2,"TR",100,"mg","Y",""
"NCAA-001","NCAA-001-011",11,"DRUGXM1","Drug X metabolite M1 concentration","PLASMA",1.4731,"ng/mL",0.5,6,6.01,174.01,"h","Reference",2,"TR",100,"mg","Y",""
"NCAA-001","NCAA-001-011",11,"DRUGXM1","Drug X metabolite M1 concentration","PLASMA",1.093,"ng/mL",0.5,8,8.01,176.01,"h","Reference",2,"TR",100,"mg","Y",""
"NCAA-001","NCAA-001-011",11,"DRUGXM1","Drug X metabolite M1 concentration","PLASMA",0.5982,"ng/mL",0.5,12,12.03,180.03,"h","Reference",2,"TR",100,"mg","Y",""
"NCAA-001","NCAA-001-011",11,"DRUGXM1","Drug X metabolite M1 concentration","PLASMA",0.32928,"ng/mL",0.5,16,16.01,184.01,"h","Reference",2,"TR",100,"mg","Y",""
"NCAA-001","NCAA-001-011",11,"DRUGXM1","Drug X metabolite M1 concentration","PLASMA",0.099177,"ng/mL",0.5,24,24.01,192.01,"h","Reference",2,"TR",100,"mg","Y",""
"NCAA-001","NCAA-001-012",12,"DRUGXM1","Drug X metabolite M1 concentration","PLASMA",0,"ng/mL",0.5,0,-0.08,-0.08,"h","Reference",1,"RT",100,"mg","Y",""
"NCAA-001","NCAA-001-012",12,"DRUGXM1","Drug X metabolite M1 concentration","PLASMA",0.93339,"ng/mL",0.5,0.5,0.52,0.52,"h","Reference",1,"RT",100,"mg","Y",""
"NCAA-001","NCAA-001-012",12,"DRUGXM1","Drug X metabolite M1 concentration","PLASMA",1.3686,"ng/mL",0.5,1,1.05,1.05,"h","Reference",1,"RT",100,"mg","Y",""
"NCAA-001","NCAA-001-012",12,"DRUGXM1","Drug X metabolite M1 concentration","PLASMA",1.5307,"ng/mL",0.5,1.5,1.57,1.57,"h","Reference",1,"RT",100,"mg","Y",""
"NCAA-001","NCAA-001-012",12,"DRUGXM1","Drug X metabolite M1 concentration","PLASMA",1.5588,"ng/mL",0.5,2,2.04,2.04,"h","Reference",1,"RT",100,"mg","Y",""
"NCAA-001","NCAA-001-012",12,"DRUGXM1","Drug X metabolite M1 concentration","PLASMA",1.4562,"ng/mL",0.5,3,3.05,3.05,"h","Reference",1,"RT",100,"mg","Y",""
"NCAA-001","NCAA-001-012",12,"DRUGXM1","Drug X metabolite M1 concentration","PLASMA",1.2879,"ng/mL",0.5,4,4.05,4.05,"h","Reference",1,"RT",100,"mg","Y",""
"NCAA-001","NCAA-001-012",12,"DRUGXM1","Drug X metabolite M1 concentration","PLASMA",0.97191,"ng/mL",0.5,6,6.01,6.01,"h","Reference",1,"RT",100,"mg","Y",""
"NCAA-001","NCAA-001-012",12,"DRUGXM1","Drug X metabolite M1 concentration","PLASMA",0.71901,"ng/mL",0.5,8,8.03,8.03,"h","Reference",1,"RT",100,"mg","Y",""
"NCAA-001","NCAA-001-012",12,"DRUGXM1","Drug X metabolite M1 concentration","PLASMA",0.39231,"ng/mL",0.5,12,12.07,12.07,"h","Reference",1,"RT",100,"mg","Y",""
"NCAA-001","NCAA-001-012",12,"DRUGXM1","Drug X metabolite M1 concentration","PLASMA",0.21628,"ng/mL",0.5,16,16.04,16.04,"h","Reference",1,"RT",100,"mg","Y",""
"NCAA-001","NCAA-001-012",12,"DRUGXM1","Drug X metabolite M1 concentration","PLASMA",0.064851,"ng/mL",0.5,24,24.07,24.07,"h","Reference",1,"RT",100,"mg","Y",""
"NCAA-001","NCAA-001-012",12,"DRUGXM1","Drug X metabolite M1 concentration","PLASMA",0,"ng/mL",0.5,0,-0.14,167.86,"h","Test",2,"RT",100,"mg","Y",""
"NCAA-001","NCAA-001-012",12,"DRUGXM1","Drug X metabolite M1 concentration","PLASMA",1.5606,"ng/mL",0.5,0.5,0.58,168.58,"h","Test",2,"RT",100,"mg","Y",""
"NCAA-001","NCAA-001-012",12,"DRUGXM1","Drug X metabolite M1 concentration","PLASMA",2.1138,"ng/mL",0.5,1,1.03,169.03,"h","Test",2,"RT",100,"mg","Y",""
"NCAA-001","NCAA-001-012",12,"DRUGXM1","Drug X metabolite M1 concentration","PLASMA",2.3772,"ng/mL",0.5,1.5,1.55,169.55,"h","Test",2,"RT",100,"mg","Y",""
"NCAA-001","NCAA-001-012",12,"DRUGXM1","Drug X metabolite M1 concentration","PLASMA",2.4265,"ng/mL",0.5,2,2,170,"h","Test",2,"RT",100,"mg","Y",""
"NCAA-001","NCAA-001-012",12,"DRUGXM1","Drug X metabolite M1 concentration","PLASMA",2.2662,"ng/mL",0.5,3,3.05,171.05,"h","Test",2,"RT",100,"mg","Y",""
"NCAA-001","NCAA-001-012",12,"DRUGXM1","Drug X metabolite M1 concentration","PLASMA",2.0069,"ng/mL",0.5,4,4.04,172.04,"h","Test",2,"RT",100,"mg","Y",""
"NCAA-001","NCAA-001-012",12,"DRUGXM1","Drug X metabolite M1 concentration","PLASMA",1.5036,"ng/mL",0.5,6,6.05,174.05,"h","Test",2,"RT",100,"mg","Y",""
"NCAA-001","NCAA-001-012",12,"DRUGXM1","Drug X metabolite M1 concentration","PLASMA",1.1223,"ng/mL",0.5,8,8.01,176.01,"h","Test",2,"RT",100,"mg","Y",""
"NCAA-001","NCAA-001-012",12,"DRUGXM1","Drug X metabolite M1 concentration","PLASMA",0.61239,"ng/mL",0.5,12,12.05,180.05,"h","Test",2,"RT",100,"mg","Y",""
"NCAA-001","NCAA-001-012",12,"DRUGXM1","Drug X metabolite M1 concentration","PLASMA",0.33558,"ng/mL",0.5,16,16.06,184.06,"h","Test",2,"RT",100,"mg","Y",""
"NCAA-001","NCAA-001-012",12,"DRUGXM1","Drug X metabolite M1 concentration","PLASMA",0.10107,"ng/mL",0.5,24,24.06,192.06,"h","Test",2,"RT",100,"mg","Y",""
